time,posi_x,posi_y,posi_z,vel_x,vel_y,vel_z,acc_x,acc_y,acc_z,jerk_x,jerk_y,jerk_z,yaw,yaw_rate,backup
69.480000000000004,0.050011186731803,-0.049999702264321,2.050000182103096,0.001006539834386,0.000026903392405,0.000016379266058,0.067449246707116,0.001815771932464,0.001096931617859,2.959749474775008,0.080852518310462,0.048072659303733,-0.000863753235831,0.008535168847203,1
69.483999999999995,0.050015784694655,-0.049999579243812,2.050000256918715,0.001300653029861,0.000034831626916,0.000021161889709,0.079766071454047,0.002152913248429,0.001296945087919,3.197830850371337,0.087704409522475,0.051919991419550,-0.000828121203886,0.009279982949302,1
69.495999999999995,0.050038106909396,-0.049998979535204,2.050000620005442,0.002504785160146,0.000067467237083,0.000040732917213,0.122291777857204,0.003326480259108,0.001986971696227,3.882431151822377,0.107767064806841,0.062959730971442,-0.000703494751180,0.011483314917052,1
69.504000000000005,0.050062399170145,-0.049998323875118,2.050001014974750,0.003612017813829,0.000097666800199,0.000058718384244,0.155092560991440,0.004240698597044,0.002518659044311,4.314568543347406,0.120733147474214,0.069907808166131,-0.000605842554241,0.012926277613425,1
69.516000000000005,0.050118197669631,-0.049996810399870,2.050001921794685,0.005798735172726,0.000157704493206,0.000094215597839,0.210585663127447,0.005803262013004,0.003417178612666,4.927253479698612,0.139572453594533,0.079725805320197,-0.000437927220644,0.015051833734790,1
69.523999999999987,0.050171755087825,-0.049995350887982,2.050002791805662,0.007645251106578,0.000208727423265,0.000124170690321,0.251557019604477,0.006968677395361,0.004079794929134,5.312533637028412,0.151727649408167,0.085876209880154,-0.000311934275420,0.016442945866903,1
69.535999999999987,0.050283180255676,-0.049992299431615,2.050004600968959,0.011059735732992,0.000303703393771,0.000179522964344,0.318611736335404,0.008895911093164,0.005162876518571,5.856545139338652,0.169357772711115,0.094522728881458,-0.000102285577859,0.018490726141884,1
69.543999999999997,0.050382360852855,-0.049989570439190,2.050006210547480,0.013799718340514,0.000380412089264,0.000223908952642,0.366837991874039,0.010296401296685,0.005940801756978,6.197107979149246,0.180711686626799,0.099908716995360,0.000051011104364,0.019829987709746,1
69.555999999999997,0.050576189858446,-0.049984210909507,2.050009354522360,0.018659680762672,0.000517378874875,0.000302576544836,0.444112739562190,0.012564267301566,0.007185512114191,6.675623866379499,0.197147275632810,0.107433262164735,0.000300837648961,0.021799992138343,1
69.564000000000007,0.050740255028137,-0.049979652771372,2.050012014339871,0.022429425085625,0.000624315232248,0.000363548915848,0.498720590800289,0.014183905416587,0.008063786285700,6.973566563944303,0.207709834055376,0.112087583405040,0.000480401056899,0.023087403141948,1
69.576000000000008,0.051047355150402,-0.049971078813326,2.050016990278809,0.028926375448647,0.000809847572923,0.000468543269096,0.584936701066193,0.016768663545925,0.009448174644556,7.389700542957940,0.222966019458643,0.118538899139093,0.000768849931604,0.024979631724162,1
69.583999999999989,0.051298120308282,-0.049964044198417,2.050021051167993,0.033845127047167,0.000951236957140,0.000547964826082,0.645094360733050,0.018591724405369,0.010412487685615,7.647077532152423,0.232747470242106,0.122493796462114,0.000973643053971,0.026215192163506,1
69.595999999999989,0.051752937425618,-0.049951222689864,2.050028412126910,0.042145620595815,0.001191437847469,0.000681868066158,0.739034798213517,0.021469941912167,0.011915570568672,8.003879197715211,0.246839864910582,0.127919867233225,0.001299158741856,0.028029644899336,1
69.603999999999999,0.052114439266114,-0.049940982891083,2.050034259357324,0.048316397322032,0.001371193191155,0.000781321825927,0.803951140302615,0.023480908520549,0.012952252208704,8.222702171019083,0.255850777358231,0.131207076979169,0.001528144567369,0.029213354774429,1
69.616000000000000,0.052754510999497,-0.049922763315558,2.050044605901684,0.058563254238622,0.001671700125505,0.000946305955293,0.904459220408813,0.026629469736905,0.014553998228725,8.523157005798906,0.268795476333627,0.135655127335487,0.001889171551506,0.030950031663875,1
69.624000000000009,0.053252691016883,-0.049908514456350,2.050052653711314,0.066073650913544,0.001893426156664,0.001067107842732,0.973382925348569,0.028813039699277,0.015650007857785,8.705394914290649,0.277046741197821,0.138305879228362,0.002141313068878,0.032081890974712,1
69.636000000000010,0.054118184013291,-0.049883638149016,2.050066625903069,0.078387150511008,0.002259417567201,0.001264953630350,1.079361032024037,0.032209155679861,0.017331322519255,8.952424288857738,0.288860321695785,0.141822373793765,0.002536295832341,0.033740792017775,1
69.643999999999991,0.054780587559002,-0.049864505969037,2.050077311947578,0.087309933875401,0.002527080836339,0.001407998367761,1.151507840512137,0.034798707213747,0.018412063977416,9.082202536300002,0.357896045560829,0.128473673882631,0.002814062130616,0.035694912195880,1
69.655999999999992,0.055913843953881,-0.049831565286519,2.050095569212122,0.101786230186876,0.002972801019171,0.001637733352022,1.261551518496156,0.039681104218121,0.019839500475611,9.253871671218571,0.454458242427561,0.109672855607116,0.003259671159377,0.038560050964459,1
69.664000000000001,0.056769295306092,-0.049806473003060,2.050109315047166,0.112175859135823,0.003305440374846,0.001799831949739,1.335988403369110,0.043558525807608,0.020669488577310,9.353389708655962,0.514303048463440,0.097927275007024,0.003575639307901,0.040426115811124,1
69.676000000000002,0.058214300298060,-0.049763517227233,2.050132428221129,0.128884380041653,0.003867215848132,0.002054512976567,1.449020189571544,0.050237097068001,0.021744389879089,9.480959244794779,0.597496623022540,0.081446610571870,0.004077230282061,0.043159171582531,1
69.688000000000002,0.059867980732774,-0.049713315884294,2.050158670309649,0.146957856226282,0.004514939316118,0.002320938064827,1.563430473542443,0.057867938086266,0.022629457146034,9.583290413092328,0.673063361435236,0.066278464131689,0.004611142426689,0.045812977555636,1
69.695999999999984,0.061094492366072,-0.049675286152988,2.050177967408256,0.159772576697015,0.004999923133456,0.002503992775794,1.640322497451182,0.063439726257429,0.023121671998557,9.637934779258437,0.719347277586944,0.056866733365900,0.004984570433820,0.047538153871979,1
69.703999999999994,0.062425986744072,-0.049633194372661,2.050198743903930,0.173204068708917,0.005530928236445,0.002690689840120,1.717609287519626,0.069369024425581,0.023540766101305,9.682025623960842,0.762454872340838,0.047995468383739,0.005371658962953,0.049228108055748,1
69.715999999999994,0.064630894100675,-0.049561603918888,2.050232741877236,0.194513208606876,0.006419966232019,0.002976946199055,1.833964240629793,0.078944042911943,0.024194182764581,9.707143298251022,0.832491535539094,0.060773386152090,0.005988066811724,0.053492109918725,1
69.724000000000004,0.066246515147403,-0.049507645992036,2.050257337021175,0.209495636149111,0.007078631238228,0.003172531470575,1.911650399643384,0.085780552051431,0.024712899153977,9.712962784387928,0.876249863162634,0.068846435951848,0.006427207691300,0.056286699536367,1
69.736000000000004,0.068900898835406,-0.049416269330080,2.050297207396538,0.233134715648343,0.008172590855307,0.003474322648336,2.028181876164880,0.096668753081941,0.025608519030701,9.705820589100812,0.937603573619712,0.080290792770669,0.007127453228600,0.060406466526304,1
69.743999999999986,0.070831706341559,-0.049347714367116,2.050325828457416,0.249670618038561,0.008976356608767,0.003681837718443,2.105773657996722,0.104323501843534,0.026279832610197,9.690776407071960,0.975716745551674,0.087478903444335,0.007621524334707,0.063104899561910,1
69.755999999999986,0.073982158087904,-0.049232201861720,2.050371928597847,0.275636844167626,0.010299793592737,0.004003741890195,2.221855704630725,0.116355520988726,0.027391110034012,9.653291542505714,1.028815339349649,0.097602672481490,0.008402722863075,0.067080431678807,1
69.763999999999996,0.076259175280919,-0.049145991632008,2.050404843514150,0.293720245856986,0.011263914761264,0.004226062319314,2.298948521133716,0.124718436813145,0.028197414080938,9.618647407894253,1.061565326737547,0.103915328616432,0.008949801064076,0.069682708132395,1
69.775999999999996,0.079952105071872,-0.049001536399984,2.050457616686262,0.321997078408157,0.012837802819725,0.004571945756211,2.413394492849893,0.137629102954577,0.029429616633518,9.405368843653036,1.081063794898426,0.095833472204311,0.009805668997185,0.072665860536722,1
69.787999999999997,0.083992522868091,-0.048837261721271,2.050514625449731,0.351628251159687,0.014567322407543,0.004931630974987,2.524579067898646,0.150635054192259,0.030488104150980,9.127734781390254,1.086508947035766,0.080923616123371,0.010692666277271,0.075156145088353,1
69.796000000000006,0.086887110482945,-0.048715810032195,2.050555060828522,0.372115062040577,0.015807207319842,0.005178028918733,2.596886961771506,0.159340614268321,0.031099616949747,8.950211526169683,1.089838920891488,0.072099402781435,0.011300430537175,0.076780086825691,1
69.803999999999988,0.089947891411950,-0.048584160407216,2.050597486224661,0.393174716739007,0.017116840524105,0.005429045764999,2.667797592561425,0.168071777465617,0.031643964990193,8.778366068273543,1.092906614718795,0.064126605152663,0.011921070337492,0.078375030192021,1
69.815999999999988,0.094860579516062,-0.048366342088606,2.050664930817627,0.425814313318592,0.019212492760551,0.005813129234466,2.771639587730166,0.181211736556873,0.032349073468910,8.530557321680321,1.096976257494304,0.053688133263350,0.012875664204754,0.080713073295895,1
69.823999999999998,0.098356511007501,-0.048206749710532,2.050712475470548,0.448258699009399,0.020697315615550,0.006073573898246,2.839244823350552,0.189997087737484,0.032754100220585,8.371543625463740,1.099308881898566,0.047693386119487,0.013527477913125,0.082235520734727,1
69.839999999999989,0.105897735606713,-0.047850521846689,2.050813875922735,0.494744959584469,0.023878180371689,0.006603302212843,2.970702745610271,0.207638627009848,0.033440153400870,8.053248489571853,1.113677323382636,0.040477456291109,0.014868488981716,0.085905323670370,1
69.844000000000008,0.107900566735510,-0.047753336106444,2.050840557085584,0.506691963910218,0.024717674807127,0.006737387651472,3.002741490925541,0.212116207990102,0.033602809298976,7.966358372989872,1.125103146567185,0.040842548754768,0.015214973829197,0.087335354604530,1
69.856000000000009,0.114199343560869,-0.047441125159275,2.050923836969985,0.543292307445469,0.027344893583608,0.007143584078352,3.096810779065333,0.225821342792264,0.034098224746936,7.713848190097132,1.158977831837329,0.041657705841294,0.016288455875967,0.091562610673748,1
69.863999999999990,0.118645434727714,-0.047215040352640,2.050982080348511,0.568311896468792,0.029188789213607,0.007417706787329,3.157870587212891,0.235182150282866,0.034432876759309,7.551926034010308,1.181166247643192,0.041976011219967,0.017032047915866,0.094328417442183,1
69.875999999999991,0.125694702051055,-0.046847499226505,2.051073584105590,0.606744404290094,0.032096806219075,0.007833929595038,3.247079408933663,0.249552507250615,0.034937902693126,7.317922618932469,1.213742060833534,0.042132123468500,0.018188504165688,0.098398581678288,1
69.884000000000000,0.130653185051367,-0.046582635069083,2.051137377149384,0.632953596437852,0.034132293173200,0.008114780395841,3.305017958213652,0.259347473889821,0.035274662997076,7.167415554887834,1.234923303059339,0.042031345979978,0.018986365062071,0.101059660557991,1
69.896000000000001,0.138488637816471,-0.046154016628368,2.051237306370431,0.673124576179170,0.037334124855884,0.008541094038896,3.389708909749137,0.274352865810078,0.035776724858925,6.949188907445654,1.265783932742130,0.041588701982641,0.020222653678285,0.104972732960984,1
69.904000000000011,0.143982695080781,-0.045846455896016,2.051306783517516,0.700463109553126,0.039569666690701,0.008828633937255,3.444736620828683,0.284559134926342,0.036107609117038,6.808324759477384,1.285689791877375,0.041108343418812,0.021072688873375,0.107529083951945,1
69.916000000000011,0.152638227495432,-0.045350755719920,2.051415337989899,0.742287886796983,0.043078816291433,0.009264645072186,3.525864120656902,0.300451044206160,0.036541192551841,6.710602158210303,1.361650212975057,0.031247677267996,0.022384844289791,0.111148311340304,1
69.923999999999992,0.158689929365770,-0.044996393551983,2.051490626999807,0.770708778865337,0.045526500650324,0.009557907017528,3.579261880648034,0.311531808324104,0.036765933831163,6.637843324093253,1.407973562568286,0.024977637592055,0.023283506708271,0.113510549231222,1
69.935999999999993,0.168198044898935,-0.044427235046256,2.051607975568233,0.814135041359366,0.049367817904015,0.010000678388936,3.658208311898580,0.328814118403715,0.037011373771548,6.517741808566424,1.471169940115816,0.016016903610962,0.024666529261415,0.116978035515630,1
69.944000000000003,0.174828742253352,-0.044021644079120,2.051689166603354,0.843608361091810,0.052045822705613,0.010297220678870,3.710005462556405,0.340737808637938,0.037116619981648,6.430625761049629,1.509216139381156,0.010332782329387,0.025611424830357,0.119239112670589,1
69.956000000000003,0.185221005120318,-0.043372122596879,2.051815408029716,0.888588124045318,0.056244609244455,0.010743166596952,3.786340064866488,0.359162189253740,0.037191494815091,6.289819796703593,1.560340908490936,0.002230094200441,0.027062279698149,0.122554857851047,1
69.963999999999984,0.192451407617378,-0.042910538719497,2.051902543569880,0.919079061744526,0.059168168180852,0.011040714661440,3.836260527334915,0.371767843823315,0.037188686938729,6.189448192480707,1.590566329581684,-0.002895754350062,0.028051385202827,0.124714774270030,1
69.975999999999985,0.203758338198900,-0.042173292405988,2.052037708397356,0.965555853222418,0.063744819958505,0.011486627580111,3.909433553844260,0.391042527882291,0.037135829174829,5.954436280719739,1.601986119085185,0.002770808997326,0.029566592038870,0.127656413951748,1
69.983999999999995,0.211608389635080,-0.041650684426797,2.052130790433806,0.997019184494086,0.066924103276054,0.011784018285413,3.956069661715451,0.403739258853496,0.037238142646249,5.707218891974708,1.572700699752255,0.022493619652352,0.030594348709076,0.129277600608832,1
69.995999999999995,0.223859075175659,-0.040818075931369,2.052274888247347,1.044894524256996,0.071881247008138,0.012233147203732,4.022468898558905,0.422374362055654,0.037668950981503,5.364800837245197,1.534188887349398,0.048634508438532,0.032159992334810,0.131651409451588,1
70.004000000000005,0.232347403589882,-0.040229379551407,2.052373963317499,1.077243665878147,0.075309090741368,0.012536222171658,4.064535633637294,0.434556768118122,0.038120101104922,5.154131264276154,1.511833296633763,0.063868230028904,0.033219399789586,0.133195301251517,1
70.016000000000005,0.245568436919780,-0.039293949169977,2.052527162524767,1.126382019637735,0.080631895998893,0.012998757426708,4.124606479843226,0.452519380428422,0.039008563894470,4.862326347177897,1.482792158119189,0.083599921102949,0.034831360169317,0.135453167808540,1
70.023999999999987,0.254711891497162,-0.038634287218427,2.052632408240330,1.159532519257987,0.084299317396607,0.013313624430482,4.162778900580162,0.464313784791450,0.039723083147656,4.682668957681984,1.466150949094384,0.094773091351534,0.035920872511516,0.136919764751307,1
70.035999999999987,0.268927331967045,-0.037588844191689,2.052795060165890,1.209816896388912,0.089976108735228,0.013797479692351,4.217452209039653,0.481775444664981,0.040947357857596,4.433417423209963,1.444810816261553,0.108725394472119,0.037576830799531,0.139061689022597,1
70.043999999999997,0.278741200386225,-0.036853495187693,2.052906759234488,1.243696618893163,0.093876561290730,0.014128357017301,4.252261539311942,0.493339804270161,0.041749626298493,4.270743592991915,1.446390715017356,0.091964800138761,0.038693766569200,0.140167999899246,1
70.055999999999997,0.293972935966209,-0.035691039202510,2.053079330230750,1.295025727468236,0.099900854880333,0.014635393646219,4.302140809428233,0.510716005154080,0.042708925735326,4.046152750974423,1.449821054954256,0.068187463525165,0.040385509677154,0.141779614396121,1
70.064000000000007,0.304471152561464,-0.034875365676010,2.053197785560447,1.329570834506532,0.104033005976504,0.014979085544100,4.333951845301928,0.522325467668096,0.043194093120448,3.908059681744936,1.452592707834637,0.053220477049189,0.041523933640114,0.142822122848641,1
70.076000000000008,0.320739158440423,-0.033588943504438,2.053380658332379,1.381854928466540,0.110405605150140,0.015500729438731,4.379680198437709,0.539783449714027,0.043704227845263,3.716204675106517,1.457112413365807,0.032055489504463,0.043246952001643,0.144338033709321,1
70.083999999999989,0.331934462170697,-0.032688301187161,2.053506065151140,1.417010002257648,0.114770533038685,0.015851245667891,4.408929695257912,0.551452593548163,0.043907127414946,3.597275764446137,1.460163537438093,0.018778699059814,0.044405588109409,0.145316739737708,1
70.095999999999989,0.349257048854040,-0.031270929356911,2.053699445442826,1.470172079177567,0.121493202072047,0.016379025734605,4.451082680635579,0.569000861349519,0.044018807627376,3.430343922223400,1.464464412992097,0.000073102191796,0.046157967651790,0.146736946962193,1
70.103999999999999,0.361161150590477,-0.030280650689468,2.053831886003511,1.505889381481068,0.126092099470031,0.016731052227778,4.478103224801523,0.580726822307565,0.043972233176731,3.325578877933335,1.466963030427045,-0.011614024918379,0.047335539855886,0.147651850566453,1
70.116000000000000,0.379555201036326,-0.028725313252726,2.054035817480194,1.559864920178570,0.133165580199436,0.017256618321300,4.517711716921538,0.598112827024940,0.043518475477904,3.271516709348191,1.430064282673678,-0.063436071803023,0.049101723688997,0.146709695224730,1
70.124000000000009,0.392178965343310,-0.027640727527325,2.054175256898615,1.596110797147228,0.137995964597132,0.017602383894045,4.543690692501589,0.609447696245539,0.042879382308604,3.221399469785853,1.403383344539131,-0.096088181127957,0.050272860798221,0.146073503683501,1
70.136000000000010,0.411660362056377,-0.025940494562629,2.054389541749034,1.650864882582692,0.145409370039006,0.018108889263625,4.581799778297913,0.626033934206147,0.041445746590586,3.126206149865056,1.360415647827599,-0.142306392736070,0.052019958885095,0.145107084401540,1
70.143999999999991,0.425014163917796,-0.024757071069194,2.054535726355406,1.687618533239995,0.150460853251151,0.018435588113359,4.606511304830343,0.636796189709656,0.040190272609810,3.050027289193394,1.329907440699461,-0.171326862068723,0.053178210403888,0.144454716900155,1
70.155999999999992,0.445598124470775,-0.022905311908630,2.054759794756912,1.743113222726806,0.158197017994740,0.018904535125101,4.642338992424680,0.652467820145112,0.037885716596081,2.917742058610031,1.281520833011113,-0.212251715986848,0.054905737465721,0.143464033677956,1
70.164000000000001,0.459691832013105,-0.021618748153189,2.054912224714185,1.780344263698039,0.163457410931602,0.019200552259299,4.665288447436378,0.662585199696993,0.036084443694670,2.818146655606923,1.247611149351036,-0.237844689147612,0.056050779874890,0.142795490216411,1
70.176000000000002,0.481392662592612,-0.019609197881954,2.055145158089980,1.836526049105216,0.171496835074047,0.019615469829583,4.697868116976430,0.677178946802571,0.032977565415259,2.590383815521578,1.179679508990919,-0.282376864395201,0.057757198950832,0.141518593815624,1
70.183999999999983,0.496235420287900,-0.018215453855785,2.055303112362656,1.874190131554684,0.176951494092951,0.019869918912622,4.717937436644085,0.686421173793347,0.030593137308495,2.429068393759354,1.131201136101259,-0.313552548512705,0.058885584765755,0.140577752790982,1
70.195999999999984,0.519066076569585,-0.016042292889472,2.055543660518132,1.930974849996260,0.185268308384743,0.020213372298735,4.745743096339399,0.699576002762649,0.026559610593266,2.209395616195407,1.061922786960772,-0.358293046238520,0.060564044445288,0.139165286100287,1
70.203999999999994,0.534665924776187,-0.014537670324175,2.055706186215655,1.969010046902625,0.190898423131942,0.020414077364665,4.762878324291947,0.707893853408116,0.023578721093840,2.076021529526633,1.017797269449429,-0.386743857130021,0.061673597371005,0.138222838204003,1
70.215999999999994,0.558637556864072,-0.012195632400690,2.055952738453736,2.026309547140764,0.199464888821729,0.020668187515069,4.786671722193285,0.719723484124910,0.018691830731151,1.892628262040525,0.954317005477764,-0.427312944269658,0.063323783613649,0.136807961205852,1
70.224000000000004,0.575001365790175,-0.010576801580028,2.056118645074504,2.064662263553807,0.205252777251818,0.020803771810184,4.801357015310189,0.727194322738960,0.015170084318867,1.779836047855266,0.913589191899206,-0.452931762412666,0.064414471512724,0.135863906437932,1
70.236000000000004,0.600123511625293,-0.008061151449381,2.056369249471039,2.122402836436326,0.214043456595628,0.020952315908698,4.821756575268672,0.737800813472498,0.009514757853126,1.622166934839592,0.854537861561928,-0.489184878704956,0.066036336112330,0.134446619132325,1
70.243999999999986,0.617257166595906,-0.006325122122428,2.056537131299529,2.161027621013322,0.219972773973695,0.021013064719750,4.834292834248846,0.744475395822252,0.005706963774814,1.512109385676495,0.814682540962644,-0.463292970245452,0.067112088969264,0.134490077087599,1
70.255999999999986,0.643537990830290,-0.003631615991801,2.056789568076586,2.219144079515122,0.228963806511240,0.021049025526007,4.851457257480959,0.753922841802229,0.000352661420898,1.348925896637318,0.761077122082867,-0.430205148141208,0.068726279043157,0.134538186363054,1
70.263999999999996,0.661446502899390,-0.001775715763635,2.056957935266745,2.257997749604356,0.235019195214386,0.021038284572594,4.861816190618331,0.759881739373498,-0.003013289174662,1.240864364268798,0.729127499803417,-0.411744577980097,0.069802673357100,0.134558874108386,1
70.275999999999996,0.688892872376581,0.001099432844017,2.057210060901760,2.316425001874533,0.244189210835204,0.020973058894907,4.875735457907277,0.768368634817462,-0.007812300404559,1.078980596972616,0.686334220476977,-0.389057617818057,0.071417484063352,0.134572828068924,1
70.284000000000006,0.707580385692519,0.003077592336832,2.057377562451325,2.355464259307984,0.250357845195216,0.020898245161075,4.883934544605585,0.773756068419929,-0.010875120480057,0.970708433323602,0.660915718097560,-0.377045706497933,0.072494064430103,0.134570745604311,1
70.296000000000006,0.736197867908803,0.006137784710807,2.057627450891149,2.414137447123989,0.259689660069244,0.020740955612351,4.894602674019177,0.781478479560124,-0.015312378658984,0.806982918769491,0.626939028315950,-0.363324743002155,0.074108812662417,0.134550544249934,1
70.303999999999988,0.755667661285138,0.008240362359206,2.057792857687782,2.453318916970148,0.265961329813315,0.020606904878436,4.900617507428838,0.786412062670033,-0.018191649640104,0.696518146581281,0.606765490911906,-0.356831016279315,0.075185123677772,0.134525691575377,1
70.315999999999988,0.785460515358298,0.011488683254100,2.058038720746282,2.512170511766072,0.275438146741250,0.020360507672698,4.907497520110901,0.792744354191126,-0.023072618540070,0.454379795567960,0.450218219431255,-0.455860610355267,0.076773143658374,0.130153503319558,1
70.323999999999998,0.805714954919727,0.013717592524474,2.058200826219307,2.551443423676705,0.281793439960527,0.020160658137956,4.910532594723817,0.795946721385629,-0.026974155660648,0.305958573993084,0.351042959018673,-0.519152404534042,0.077802818805728,0.127269371575648,1
70.335999999999999,0.836685907203432,0.017156512697804,2.058440655820948,2.610386777671699,0.291366629187794,0.019797381843798,4.912946407173198,0.799301882057131,-0.033753263958874,0.099216304165193,0.209564972671405,-0.609834345766707,0.079304314834013,0.122989164599748,1
70.344000000000008,0.857726221380557,0.019513039337227,2.058597901489546,2.649692129282933,0.297766783633360,0.019507221041569,4.913219216779203,0.800617078403347,-0.038863645087943,-0.030014327250434,0.119823724008846,-0.667364817116834,0.080276920555022,0.120166353709118,1
70.356000000000009,0.889876256590376,0.023143910287273,2.058828991752332,2.708644117963375,0.307379694138145,0.018990811523093,4.911744017530165,0.801278285015751,-0.047368163518012,-0.214188686590623,-0.008379795424292,-0.749139887625350,0.081693732256587,0.115978128013138,1
70.363999999999990,0.911702564526248,0.025628586272878,2.058979337423478,2.747929948294596,0.313788775163863,0.018587338465032,4.909556121304432,0.800883372933868,-0.053568679454090,-0.332290565150740,-0.089831431819162,-0.800573030374158,0.082610494968313,0.113216637975798,1
70.375999999999991,0.945031103035054,0.029451681239739,2.059198289392592,2.806816186976794,0.323390304172285,0.017883481029853,4.904402193024390,0.799186517532989,-0.064221431046744,-0.535970568430013,-0.184846084837025,-1.023537159309838,0.083944262023807,0.109070250292150,1
70.384000000000000,0.967642524624042,0.032064360709161,2.059339210700854,2.846032735138836,0.329777302559477,0.017334904360482,4.899546361130289,0.797491252268915,-0.073176650887046,-0.677348097195662,-0.238717800601270,-1.213972539368344,0.084805803283517,0.106318995662069,1
70.396000000000001,1.002147474744917,0.036079033269122,2.059541591315725,2.904773543229473,0.339328117031042,0.016362768092780,4.890176779502196,0.794155017252235,-0.089388149786578,-0.883159425897397,-0.316793730728990,-1.485015804820393,0.086057082215257,0.102236337772370,1
70.404000000000011,1.025542070510912,0.038819043050306,2.059669502621925,2.943865260565921,0.345670679195117,0.015598298365125,4.882573777397489,0.791418389437081,-0.101957173944798,-1.017253708503089,-0.367145807416481,-1.655934384524207,0.086864188036437,0.099544048549512,1
70.416000000000011,1.061219691650918,0.043023962258753,2.059848846594925,3.002378130732122,0.355139492700562,0.014249678942318,4.869174964687091,0.786570843403813,-0.123296070675309,-1.215432588720917,-0.440325764941191,-1.897604308814431,0.088034698291491,0.095549838770647,1
70.423999999999992,1.085394423779404,0.045890209875970,2.059958733345383,3.041291237249703,0.361417461172690,0.013200952270282,4.858926905470415,0.782858167445750,-0.139087324547567,-1.346512027923594,-0.487657346527103,-2.048899714741634,0.088788547982284,0.092916514955022,1
70.435999999999993,1.122239359428301,0.050283439734983,2.060106524740995,3.099496697536199,0.370774978075812,0.011379184418389,4.841590087997121,0.776590003489203,-0.164965081272029,-1.543070555130919,-0.556650927280631,-2.261115425868445,0.089880058522869,0.089010753286991,1
70.444000000000003,1.147190127616715,0.053274434192536,2.060192087540453,3.138177746589760,0.376965520048863,0.009987685023799,4.828389396945013,0.770504787287820,-0.182838060573896,-1.755181775601577,-0.962177093457474,-2.207332397667926,0.090537680519187,0.075420062861068,1
70.456000000000003,1.185195377153649,0.057853177158800,2.060298145417740,3.195984750928310,0.386128170281820,0.007636600568643,4.805514368404554,0.755442800910620,-0.208852157413488,-2.053747295310940,-1.542567747347345,-2.128727542727333,0.091321772181410,0.055318844248015,1
70.463999999999984,1.210916852302678,0.060966237105843,2.060352374400671,3.234361117669209,0.392118382282391,0.005898213001742,4.788326385330121,0.741619140920941,-0.225676386627700,-2.241969883643281,-1.910861394121596,-2.077464223405132,0.091711377929552,0.042107909856557,1
70.475999999999985,1.250073279814867,0.065724465456284,2.060406311418908,3.291653058654671,0.400867441214145,0.003042341078355,4.759791204925133,0.715508395366710,-0.250151146398284,-2.511665252812840,-2.435338286900431,-2.001895789888317,0.092099141560031,0.022576325295140,1
70.487999999999985,1.289915079312905,0.070585653905408,2.060424237460996,3.348583453932267,0.409266213623515,-0.000101817835630,4.728091143298982,0.683305080757897,-0.273726554214099,-2.770165684568493,-2.926302959517932,-1.927496019298106,0.092254576858359,0.003386521164705,1
70.495999999999995,1.316854805869417,0.073881392984335,2.060414500239551,3.386317737206559,0.414635679751794,-0.002352784976152,4.705255501834320,0.658649790163485,-0.288949677385953,-2.938314207360091,-3.235049702313336,-1.878328911317530,0.092231154460455,-0.009216803571720,1
70.504000000000005,1.344095661653389,0.077219272792517,2.060386272331476,3.423863979253191,0.419798181587092,-0.004723966272034,4.681083560455114,0.631583728856737,-0.303780369709966,-3.104418301146864,-3.529005680161224,-1.829369443782200,0.092107513074315,-0.021668225894375,1
70.516000000000005,1.385518148302382,0.082301285161315,2.060307170924472,3.479805129274323,0.427115301201241,-0.008505945790622,4.641752714876205,0.587299642561863,-0.326948870096305,-3.448800379059573,-3.847298129847416,-2.029035567227416,0.091757557047044,-0.036611961812005,1
70.523999999999987,1.413504826329261,0.085736668564994,2.060228485172146,3.516826393687499,0.431688445065179,-0.011187800564300,4.613265515488405,0.555722676916610,-0.343679022421149,-3.672210157140400,-4.045036072926160,-2.152186722589393,0.091425340829127,-0.046421729628018,1
70.535999999999987,1.456037816845032,0.090955756595005,2.060068854224092,3.571913283035386,0.438059113951303,-0.015471092557641,4.567229527613898,0.505504730295660,-0.370543088496789,-3.998817134315940,-4.320416661465768,-2.322249006147376,0.090781091767376,-0.060907297158499,1
70.543999999999997,1.484758928662999,0.094476033291712,2.059933027677197,3.608320879854761,0.441963058973856,-0.018510876338553,4.534386368187509,0.470255256723076,-0.389541202359278,-4.211303445785604,-4.490121197779794,-2.426010110412717,0.090255734649051,-0.070411619383116,1
70.555999999999997,1.528384019573865,0.099812137837695,2.059682140951711,3.662422775712820,0.447277067390536,-0.023363540551833,4.481973238379437,0.414944445686326,-0.419519160440084,-4.522836093545708,-4.724315105217264,-2.567513506905939,0.089326355920561,-0.084439018526449,1
70.564000000000007,1.557826434616559,0.103403226343229,2.059481587057747,3.698131653689465,0.450443893349907,-0.026802781312280,4.444975241690625,0.376571617137805,-0.440404463056527,-4.726100664721915,-4.867138452354856,-2.652590478213071,0.088613966813658,-0.093637895159633,1
70.576000000000008,1.602522671088345,0.108834253611474,2.059127475135067,3.751124460542850,0.454609316459816,-0.032279918469152,4.386685855965561,0.317644367455873,-0.472361712812465,-4.969078602888273,-4.898815941238419,-2.624102345009997,0.087370847567051,-0.116635617965106,1
70.583999999999989,1.632671613685182,0.112480875255059,2.058853897761241,3.786057434650786,0.456993963267485,-0.036142046844526,4.346370616972339,0.278543951699955,-0.493077972907206,-5.109373798057813,-4.878834853912698,-2.554796861759885,0.086364694733434,-0.134867164669158,1
70.595999999999989,1.678415755109996,0.117983453748046,2.058383963373284,3.837841020276651,0.459985467455986,-0.042240402066577,4.283813493030058,0.220045291645573,-0.523103005214933,-5.316135576794838,-4.876169427466357,-2.449019538012217,0.084584117828679,-0.161815944806236,1
70.603999999999999,1.709255108754458,0.121669962600931,2.058029093400892,3.871939959702512,0.461589667381411,-0.046502832594818,4.240740347003769,0.180984819504795,-0.542409057981168,-5.451901914023745,-4.891055004265334,-2.377343535418766,0.083218647926564,-0.179516104951599,1
70.616000000000000,1.756022136886563,0.127220658226936,2.057431329100176,3.922431463144993,0.463408409283788,-0.053180301854186,4.174107970884859,0.122049198169247,-0.570284172791943,-5.653042362910090,-4.935815555027641,-2.268189539613198,0.080907066217448,-0.205667805250546,1
70.624000000000009,1.787534674815903,0.130931409026548,2.056987445608996,3.955642011085767,0.464226421563415,-0.057814372191596,4.128352024803385,0.082396052775912,-0.588135004253467,-5.785787882040693,-4.979163780749126,-2.194384738243818,0.079192906978013,-0.222836578837155,1
70.636000000000010,1.835297939725667,0.136506619074388,2.056250703478395,4.004760906610059,0.464854807016182,-0.065027306287912,4.057735371855185,0.022168982055152,-0.613796356319459,-5.983393658645652,-5.062048604103637,-2.082226008953262,0.076366262061299,-0.248191199297963,1
70.643999999999991,1.867465358962340,0.140225727627749,2.055710671692090,4.037028845758428,0.464866507151430,-0.070001397682745,4.008944571583311,-0.019697100010366,-0.629365563383504,-6.212039522208808,-5.401910645979844,-1.811527613993850,0.074325122085002,-0.262065094726796,1
70.655999999999992,1.916196536508677,0.145801116398162,2.054824847365449,4.084681100228239,0.464229454831561,-0.077674742328578,3.932461057589530,-0.087440006464213,-0.648745546649046,-6.530473192534852,-5.882765677879340,-1.421689875932391,0.071057025692157,-0.282553062299998,1
70.664000000000001,1.948999262518744,0.149511645436327,2.054182573622902,4.115929680560766,0.463338432443440,-0.082907519744554,3.879421331398940,-0.135717127252116,-0.659116502275422,-6.727505832706533,-6.183917082451722,-1.172459394561817,0.068742712814876,-0.295996456968753,1
70.676000000000002,1.998667779208517,0.155060122848584,2.053139915518624,4.161991622120543,0.461254235194942,-0.090892627713583,3.797020065750198,-0.212493951356823,-0.671018625816473,-7.001976069511453,-6.606349734586593,-0.814353612944518,0.065071314581969,-0.315838673401766,1
70.688000000000002,2.048883028980316,0.160577942839951,2.052000680954944,4.207045557846161,0.458219147072121,-0.098995225581780,3.711466821009883,-0.294128363849436,-0.678735314950814,-7.253213155607731,-6.993495855107802,-0.474829154166752,0.061164134455970,-0.335293439150665,1
70.695999999999984,2.082657538061321,0.164233681942938,2.051186963765269,4.236503504913984,0.455639742865813,-0.104437975032272,3.652812392010611,-0.351040625712090,-0.681663784542226,-7.408888948808955,-7.231949309372241,-0.258630057337619,0.058430653768758,-0.348048032603171,1
70.703999999999994,2.116665820682969,0.167866944607269,2.050329629146646,4.265487329619462,0.452597577747131,-0.109897319464259,3.592947864106855,-0.409797631800349,-0.682894724726855,-7.555839032328699,-7.454682927601185,-0.050429249248241,0.055595825135133,-0.360630425751672,1
70.715999999999994,2.168108022200228,0.173266670149861,2.048961703555540,4.308004787732707,0.447211855102435,-0.118087323769982,3.488930396368025,-0.482277280535319,-0.681422406007639,-9.738493010234979,-4.681529693881378,0.291379907787766,0.051131962191316,-0.383265365661178,1
70.724000000000004,2.202682846441316,0.176828569080767,2.047995228936567,4.335590248234808,0.443221978620236,-0.123527073128745,3.405676275758413,-0.512970404424486,-0.678230553493311,-11.057411957218424,-3.015341306798404,0.504669654499943,0.048006419654325,-0.398084105967994,1
70.736000000000004,2.254951820114543,0.182109598477539,2.046464238856508,4.375618015193141,0.436904845141076,-0.131622182986519,3.262046855922696,-0.535401572769129,-0.670356951684066,-12.843350470232847,-0.773175038510772,0.803420587911042,0.043097994501304,-0.419905386978879,1
70.743999999999986,2.290060030358751,0.185587667648674,2.045389882554052,4.401291748139919,0.432611442535371,-0.136957322259032,3.154961123588661,-0.536172114186115,-0.663180614556155,-13.912367250205905,0.559652878697662,0.988864011256757,0.039681501550846,-0.434181688019895,1
70.755999999999986,2.343098574322175,0.190740695071818,2.043698949579442,4.438114016171792,0.426261792146185,-0.144837951882884,2.979219642060485,-0.518559628764919,-0.649741175978642,-15.344561288644151,2.331654695252016,1.247119099321086,0.034344787366595,-0.455189310132159,1
70.763999999999996,2.378697493475655,0.194134417334385,2.042519564130612,4.461447491333812,0.422199301611597,-0.149994247387226,2.853020146726374,-0.495678230412115,-0.639120324006511,-16.191381430429225,3.370332975613495,1.406405577894070,0.030648192787961,-0.468923171907477,1
70.775999999999996,2.432435556334598,0.199166161149248,2.040674034492160,4.494500968906035,0.416512553568133,-0.157558711846324,2.655639250177025,-0.452090290872084,-0.621540265447122,-16.460398193994180,3.587318461930739,1.466198024225559,0.025105973399735,-0.420854260889438,2
70.784000000000006,2.468475140108354,0.202484099519446,2.039393800226350,4.515219447175356,0.413009981781313,-0.162484314612696,2.523994602279923,-0.423633241818399,-0.609885251868380,-16.449686380061920,3.526879333536639,1.447578733189365,0.022043970248438,-0.344883719134961,2
70.796000000000006,2.522834765287487,0.207410726888534,2.037400491616769,4.544323592555203,0.408178130496859,-0.169699377843704,2.326752380523001,-0.381858021930330,-0.592680618579683,-16.421650114035995,3.435522370206974,1.419912765675845,0.018576292115746,-0.233596318766259,2
70.803999999999988,2.559262409315588,0.210664224333952,2.036024051589490,4.562412384948347,0.405232549646314,-0.174395580822462,2.195481044698817,-0.354618976344965,-0.581394484132392,-16.395156922696252,3.374183495822369,1.401644252430298,0.016998120969373,-0.161183660029212,2
70.815999999999988,2.614164714154623,0.215502447475577,2.033889845929446,4.587578852374772,0.401217844738982,-0.181272049487302,1.999032492341851,-0.314683723833266,-0.564737905356317,-16.344013972099305,3.281576864043258,1.374504916139222,0.015702822598795,-0.055233084186260,2
70.823999999999998,2.650927920172497,0.218702399059098,2.032421714828527,4.603048531138624,0.398804723693940,-0.185746160064117,1.868442566141733,-0.288679345954216,-0.553813628375197,-16.302490296843271,3.219470813781395,1.356587770514625,0.015537325796990,0.013621691533870,2
70.835999999999999,2.706294340280973,0.223468191307089,2.030153275100896,4.624297740563099,0.395570129064818,-0.192294889870980,1.673238616657254,-0.250607080577641,-0.537694563273088,-16.229357524390529,3.125811127503190,1.329975855204152,0.016307670698015,0.114235442851065,2
70.844000000000008,2.743340882091125,0.226624998311861,2.028597822871546,4.637164890559135,0.393664629724580,-0.196554074888646,1.543623306130876,-0.225851413123854,-0.527125111562871,-16.173541622013936,3.063067483184411,1.312410540381016,0.017483690580442,0.179532335554020,1
70.859999999999999,2.817722083732210,0.232896792976505,2.025386375645615,4.659797883202724,0.390437706960877,-0.204821575013415,1.285842296615570,-0.177850274098156,-0.506404958936623,-16.045486079032568,2.936941985987873,1.277702457398616,0.021374392706021,0.305856661339096,1
70.863999999999990,2.836371390944718,0.234457152245169,2.024563051711786,4.664812981895520,0.389749717030166,-0.206836996156876,1.221730617715612,-0.166165791123493,-0.501311338768966,-16.010134425980056,2.905292229068223,1.269113498343170,0.022659321168859,0.336548272031020,1
70.875999999999991,2.892432508359216,0.239123014790381,2.022045276999355,4.678323682249791,0.387962626028468,-0.212761971284206,1.030280462679086,-0.131873099123811,-0.486235626716670,-15.896296777787112,2.810098345881542,1.243558034368462,0.027240743141541,0.426488374296707,1
70.884000000000000,2.929890712030401,0.242222734297645,2.020327727445378,4.686058108295071,0.386996885884185,-0.216612242664996,0.903435699305903,-0.109646793429101,-0.476354699506899,-15.814060644773379,2.746456305735065,1.226697264089639,0.030886323411398,0.484669500965316,1
70.896000000000001,2.986183911560652,0.246859586454558,2.017694434475064,4.695763840795043,0.385876574254111,-0.222240779402901,0.714451577739725,-0.077263181708403,-0.461784810438122,-15.681470032608779,2.650772315258320,1.201670450520133,0.037213179184137,0.569272778705246,1
70.904000000000011,3.023771548568812,0.249944351463168,2.015901833315369,4.700978640592081,0.385342612043429,-0.225896780896590,0.589374226509832,-0.056312583138190,-0.452237574062674,-15.587080622687605,2.586863496750502,1.185162140683819,0.041986803157195,0.623896022356422,1
70.916000000000011,3.080221225821967,0.254565018932420,2.013158836662022,4.706924882931149,0.384808593486441,-0.231243433193920,0.401384733170147,-0.036287358423674,-0.439284455586797,-15.727966702041998,0.788089926765705,0.978456188302407,0.049146478411892,0.569526407027052,1
70.923999999999992,3.117888125943062,0.257642370126141,2.011294912899691,4.709632120702538,0.384531758674364,-0.234727736525496,0.275370119938964,-0.034359770036343,-0.431954755579217,-15.768957390403019,-0.290827774171965,0.855908608451169,0.053559359016976,0.533757397698692,1
70.935999999999993,3.174418995546250,0.262254084815791,2.008447313563726,4.711800953818660,0.384062484225548,-0.239853624594617,0.086123690256809,-0.046757550313544,-0.422685870531151,-15.758300893901916,-1.743600363951703,0.692890212672986,0.059645963991821,0.480819985042725,1
70.944000000000003,3.212114815303041,0.265324920677423,2.006515015636431,4.711986134016775,0.383623179084999,-0.243213988506533,-0.039760361632047,-0.064223706295793,-0.417533040539080,-15.707135390573738,-2.609917893096097,0.596927939682128,0.063353012428174,0.446005777496508,1
70.956000000000003,3.268651270840581,0.269922936075532,2.003566547757174,4.710380956112753,0.382635781470505,-0.248184566561143,-0.227496474270308,-0.102661032760050,-0.411150028971672,-15.570868192010414,-3.769436640810930,0.470191438905490,0.068395191176633,0.394500567513946,1
70.963999999999984,3.306325712420004,0.272980400437303,2.001567952916280,4.708063997204347,0.381686367427325,-0.251459531635703,-0.351574014283702,-0.135608458039438,-0.407689954510089,-15.443978534293146,-4.456500873316936,0.396144278819239,0.071415503479873,0.360641161750119,1
70.975999999999985,3.362792735284655,0.277549520562582,1.998521191789883,4.702738650129038,0.379715159384155,-0.256325538352770,-0.535440038111851,-0.194928907385761,-0.403402901020441,-15.162579225930576,-5.482517442446117,0.364512457377832,0.075423699284312,0.301486328926222,1
70.983999999999995,3.400396222262738,0.280580519853640,1.996457711154147,4.697972806642523,0.377972119124537,-0.259540369258308,-0.655652512180121,-0.241827117680145,-0.400214789899372,-14.886377911186280,-6.229558866768668,0.432039491076406,0.077632101643960,0.250752154586718,1
70.995999999999995,3.456720433593237,0.285096905263759,1.993314542732680,4.689043854549690,0.374597071567984,-0.264309498485929,-0.831589532499997,-0.322651288517217,-0.394448142669030,-14.428187494121991,-7.215030415295862,0.528010401418325,0.080191966184423,0.176202196093595,1
71.004000000000005,3.494204949304941,0.288082728675487,1.991187490769076,4.681932919575961,0.371778696579392,-0.267447534800839,-0.945702305633005,-0.382706267305982,-0.389980303894457,-14.096794871741924,-7.787952802243404,0.588485011972320,0.081406369097495,0.127536425775485,1
71.016000000000005,3.550316031280036,0.292514218825584,1.987950217544832,4.669582029952603,0.366606843545164,-0.272082837779564,-1.111717994365960,-0.480755167218213,-0.382399143722488,-13.566259977526961,-8.531130405688774,0.674011166627862,0.082506260528416,0.056089073314450,1
71.028000000000006,3.606267104834331,0.296876382678347,1.984657890716247,4.655278005717778,0.360208044844985,-0.276621156712355,-1.271156909639126,-0.586940982294239,-0.373828556158033,-13.001802707824201,-9.146182359331265,0.753407467516520,0.082759953111519,-0.013496715527333,1
71.035999999999987,3.643467550659293,0.299738476774229,1.982433024314254,4.644696842672762,0.355216027411061,-0.279587140180141,-1.373611322429825,-0.661523129663987,-0.367601205274472,-12.609936827131294,-9.491054668450293,0.802987176242684,0.082470002517361,-0.058853039411053,1
71.043999999999997,3.680580103298163,0.302558220373027,1.980184633346682,4.633309188013563,0.349617159277232,-0.282501820122858,-1.472708094855765,-0.738553138016723,-0.361015341834348,-12.164265323760313,-9.760510588422623,0.843068067046294,0.081827838020231,-0.101561981797595,1
71.055999999999997,3.736070323363045,0.306697613347866,1.976768865323958,4.614776894705508,0.340043161707413,-0.286771936410279,-1.614672630310528,-0.857792188125352,-0.350559425089073,-11.496897400589024,-10.100141208930598,0.898714921220052,0.080231523323153,-0.164206735800011,1
71.064000000000007,3.772935897391180,0.309389643245582,1.974463549366711,4.601496343511893,0.332855552894655,-0.289547281455889,-1.704874509305068,-0.939357891249636,-0.343231132174720,-11.053915946878679,-10.286076390637716,0.932994832483495,0.078754095439323,-0.205024132083457,1
71.083999999999989,3.864610477902992,0.315845038302652,1.968605228301717,4.565261426471188,0.311985854334347,-0.296219988140302,-1.914965809064051,-1.148728287717592,-0.323784221622730,-9.958681300007326,-10.621387236530902,1.009615771510875,0.073658398505282,-0.303757417111448,1
71.083999999999989,3.864610477902992,0.315845038302652,1.968605228301717,4.565261426471188,0.311985854334347,-0.296219988140302,-1.914965809064051,-1.148728287717592,-0.323784221622730,-9.958681300007326,-10.621387236530902,1.009615771510875,0.073658398505282,-0.303757417111448,1
71.095999999999989,3.919252916067868,0.319503091261758,1.965027569735622,4.541580361469165,0.297433145463752,-0.300031715988263,-2.030587671711902,-1.276963589626520,-0.311423254830911,-9.313373259533746,-10.741670141515291,1.049870188495662,0.069669786414293,-0.360727532804590,1
71.103999999999999,3.955519794491587,0.321840775758814,1.962617440589238,4.525042168621030,0.286873111326795,-0.302489238709085,-2.103395263451304,-1.363111061005297,-0.302924556118263,-8.889425255071739,-10.791281058960315,1.074523626689745,0.066635324523249,-0.397761836881850,1
71.116000000000000,4.009666338022772,0.325181995392362,1.958966073507354,4.499175410891067,0.269736932658465,-0.306045345971953,-2.206569183353193,-1.493047779215839,-0.289627994136698,-8.308514732084742,-10.855878864701891,1.140524582946761,0.061619387653197,-0.438021379461597,1
71.124000000000009,4.045588430239659,0.327291186512553,1.956508540851292,4.481261050018770,0.257444952460056,-0.308325433200445,-2.271515001602093,-1.579965984570478,-0.280339721793891,-7.928992707073717,-10.869933635898375,1.181094191540912,0.058010241309270,-0.464173534519722,1
71.136000000000010,4.099197770646930,0.330263638232678,1.952788795499055,4.453445444047240,0.237702910395834,-0.311603094493525,-2.363304841469891,-1.710335106807237,-0.265825388272480,-7.371758679357876,-10.850369714499017,1.236984269605526,0.052209739787475,-0.502370457114264,1
71.143999999999991,4.134749087179334,0.332109605589809,1.950287570629315,4.434307001362843,0.223673376091901,-0.313689744133776,-2.420821519374076,-1.796997082699230,-0.255791617013617,-7.008528342845722,-10.811847702815459,1.271039021427938,0.048091301142302,-0.527147532182167,1
71.155999999999992,4.187784492235060,0.334661194324399,1.946505246225278,4.404765392258958,0.201332949488628,-0.316666581085199,-2.501715778542943,-1.926220586398597,-0.240254983781020,-6.476425866742304,-10.718523405994780,1.317488440567251,0.041547487368468,-0.563281834791511,1
71.164000000000001,4.222942015240631,0.336209305905189,1.943964338454691,4.384548130354787,0.185581046732342,-0.318546156633018,-2.552138291759971,-2.011642541566404,-0.229601600669705,-6.130373483025910,-10.634119153508195,1.345466439959291,0.036947258021822,-0.586683829869368,1
71.176000000000002,4.275371111713954,0.338288390417944,1.940125643121455,4.353494138679846,0.160680373693806,-0.321203793928651,-2.622348210439969,-2.137925499221041,-0.213309065511902,-5.550401179376220,-10.375473276169197,1.362426673026808,0.029726858334458,-0.614406859789351,1
71.183999999999983,4.310114684522707,0.339504538850805,1.937549303217777,4.332341969179376,0.143247169391365,-0.322866630250531,-2.665171248596504,-2.220099753637972,-0.202395301520483,-5.158203272835843,-10.168598293223866,1.365961431655019,0.024748127078682,-0.630204114155190,1
71.195999999999984,4.361909451164506,0.341060751239746,1.933660724943655,4.300002113904879,0.115881191239174,-0.325196907652878,-2.723690510022401,-2.340286293785769,-0.185974896418533,-4.601107436754392,-9.863417100100504,1.370644962857282,0.017047381779650,-0.653091795678292,1
71.203999999999994,4.396221924950054,0.341912074223902,1.931053315507008,4.278069145282823,0.096845417434401,-0.326640816597023,-2.759082966349879,-2.418389572598248,-0.174998761509202,-4.249587823346195,-9.662721265131644,1.373328254810453,0.011763481436882,-0.667811450009900,1
71.215999999999994,4.447358913484982,0.342897333844408,1.927121421573409,4.244666354658934,0.067136197366978,-0.328641837174407,-2.807050867038847,-2.532551169503433,-0.158498020229934,-3.750585529953819,-9.364730101735947,1.376651244460557,0.003621146507902,-0.689082731481573,1
71.224000000000004,4.481226105447710,0.343352586875592,1.924487332452950,4.222093323034830,0.046578222798222,-0.329865749036946,-2.835787465838363,-2.606679509661681,-0.147477647143801,-3.435895986553006,-9.167501285711314,1.378374682220832,-0.001946370921156,-0.702724785778894,1
71.236000000000004,4.531686091885419,0.343721225621881,1.920518722196533,4.187827385000111,0.014645086516596,-0.331536188719896,-2.874309231287766,-2.714920556139411,-0.130925347733848,-2.989376599731509,-8.872823081908379,1.380183338618588,-0.010497967479056,-0.722379667199138,1
71.248000000000005,4.581732234327262,0.343698957461260,1.916531258353467,4.153128759806779,-0.018565970603811,-0.333008069018776,-2.908110556046152,-2.819680110625452,-0.114400728761434,-2.647156506992765,-8.585071545040977,1.373836108620996,-0.019216166498602,-0.730551880293034,1
71.255999999999986,4.614863983685295,0.343459471541167,1.913863650117144,4.129781516327534,-0.041396030451524,-0.333879359654766,-2.928409117956588,-2.887570187572777,-0.103427953535398,-2.428755490017135,-8.386576236621599,1.369318477178854,-0.025081199805522,-0.735661280915200,1
71.263999999999996,4.647808324016818,0.343035189709003,1.911189422293966,4.106278792469137,-0.064762803691639,-0.334663015188202,-2.946990657934964,-2.953851586991191,-0.092492273101814,-2.217859887523467,-8.182927139508635,1.364560866778285,-0.030986024344832,-0.740499688385049,1
71.275999999999996,4.696870869602428,0.342043024495355,1.907167199126321,4.070762581716576,-0.100790704203595,-0.335674853185203,-2.971772218392364,-3.050168862648250,-0.076162604403242,-1.915055219598514,-7.868117707886801,1.356954711358210,-0.039913127334311,-0.747249187429188,1
71.284000000000006,4.729341714292113,0.341138426620657,1.904479478777538,4.046929201037144,-0.125441544724958,-0.336240788323599,-2.986315366384231,-3.112253426052921,-0.065328375397305,-1.721862519899440,-7.652238972264302,1.351558173482696,-0.045907945194209,-0.751410112018202,1
71.296000000000006,4.777689374388149,0.339406865708905,1.900440274317284,4.010976186969998,-0.163331629260375,-0.336927619412105,-3.005298955342123,-3.202095739398557,-0.049160679752704,-1.444504953117476,-7.319785465618677,1.342954203887919,-0.054959875921358,-0.757143386741088,1
71.303999999999988,4.809680894867626,0.337997125808096,1.897743394690975,3.986889475227465,-0.189180216674361,-0.337277994479895,-3.016143051738989,-3.259748210535188,-0.038441202690651,-1.267554817187667,-7.092610262985641,1.336867460066665,-0.061031137444207,-0.760626828449254,1
71.315999999999988,4.857306052594417,0.335490251673930,1.893693675803232,3.950608287466547,-0.228796862239368,-0.337643104374089,-3.030405671262409,-3.342110165021258,-0.022416902814977,-1.109604529350050,-6.634669482159621,1.333639414389482,-0.070132285377945,-0.756177554769879,1
71.323999999999998,4.888813853469599,0.333552369589414,1.890991927374023,3.926330656227556,-0.255742804838609,-0.337779792041594,-3.038862014846294,-3.393969734899901,-0.011758812475387,-1.004512282622365,-6.330357632254565,1.330790663211920,-0.076169221642226,-0.753032686526289,1
71.335999999999999,4.935710745312710,0.330237299762195,1.886938106147236,3.889795764248281,-0.296915298094657,-0.337825200852579,-3.049972135450299,-3.467202649237011,0.004180058314103,-0.847257425587284,-5.875446956216061,1.325481375127922,-0.085176023528656,-0.748047355474910,1
71.344000000000008,4.966731439069263,0.327750539618505,1.884235753905467,3.865367233367378,-0.324831074444603,-0.337747152981610,-3.058120059416536,-3.508686213810587,0.016214916780875,-1.511495701327569,-3.712438662547638,1.941576137295750,-0.090998257130709,-0.680193912886627,2
71.356000000000009,5.012895102600577,0.323599239012360,1.880184620521262,3.828520266309753,-0.367080951143851,-0.337377936471046,-3.086264439363349,-3.523087455769348,0.048049269642441,-3.123629612341367,1.224208986805985,3.306144290202812,-0.098132810632271,-0.509492101120352,1
71.363999999999990,5.043424217730138,0.320550022582865,1.877487433075107,3.803720274399335,-0.395193840762970,-0.336879650604831,-3.114927324362529,-3.501130904222808,0.077486006686168,-4.019105281284457,4.227366182647173,4.029150626866805,-0.101760403879811,-0.397670105765288,1
71.375999999999991,5.088843356501771,0.315557102271198,1.873451680060091,3.766029238084885,-0.436815948987723,-0.335637886876760,-3.168390179273449,-3.428950905135278,0.131843681619520,-4.840692600264442,7.931850832908959,5.244153129916088,-0.105731280708742,-0.265895263871721,2
71.384000000000000,5.118869777931171,0.311953583660468,1.870771265341012,3.740521806940003,-0.463964582618307,-0.334404489731545,-3.209111784797258,-3.354641169273490,0.177795371432222,-5.323919218089193,10.606744629236909,6.211668214985457,-0.107485092424395,-0.172766852479312,2
71.396000000000001,5.163523406089019,0.306147798288094,1.866773089919037,3.701614654801194,-0.503367516837261,-0.331794785554559,-3.276521204696869,-3.205343255477387,0.259362544132681,-5.878041617793613,14.192859979688889,7.315901771146499,-0.108731435073291,-0.035427594073183,2
71.404000000000011,5.193030966912789,0.302019544856187,1.864127667699393,3.675211359956975,-0.528532923636332,-0.329479778690102,-3.324653767149326,-3.083183378160451,0.320083559575944,-6.141575259310492,16.311797857799764,7.836872136229955,-0.108654056676859,0.054563005742795,2
71.416000000000011,5.236892337761763,0.295460069181885,1.860199255766279,3.634866317791797,-0.564286952964402,-0.325060812358762,-3.400018719884991,-2.870239541952507,0.417380906833062,-6.391260074969976,19.103239093288071,8.322499969761569,-0.107200681331277,0.187195546784282,2
71.423999999999992,5.265861920238817,0.290855591714534,1.857612839559526,3.607460645267497,-0.586619829201337,-0.321453561771175,-3.451501775916201,-2.710826575106575,0.484620582822941,-6.468116467214395,20.718078432214483,8.464301350969281,-0.105354869054297,0.274048335023523,2
71.435999999999993,5.308901074475074,0.283627099174248,1.853792730885191,3.565576236946929,-0.617605836665109,-0.315027810444589,-3.529219028994271,-2.449362916045776,0.586267210361040,-6.461429781640408,22.791059929514940,8.429474686326721,-0.101295910061534,0.401974158700375,2
71.444000000000003,5.337312199970494,0.278609783422068,1.851291978526863,3.537136719047786,-0.636488532810286,-0.310072795509137,-3.580530421272167,-2.273427876378435,0.651881031907871,-6.363922774304736,21.203467064957927,7.975356795347365,-0.098212513693237,0.368958378263328,1
71.456000000000003,5.379498221400792,0.270814174890101,1.847620288988013,3.493716124090756,-0.662298157304740,-0.301692084950393,-3.655888352090245,-2.032700394786318,0.743572780908203,-6.190433972685367,18.941287095330075,7.309719103985375,-0.094077649153929,0.320373462624793,1
71.463999999999984,5.407330436464302,0.265452328627422,1.845231161102089,3.464272304779950,-0.677969064110239,-0.295514236239689,-3.704889345744156,-1.886934094837234,0.800311615647904,-6.057597467085740,17.510420957452368,6.876383917083788,-0.091642051660821,0.288609355543912,1
71.475999999999985,5.448633222974640,0.257185734274270,1.841744547026006,3.419382677756774,-0.699401139545681,-0.285430733220756,-3.776268316922664,-1.689146636293367,0.879003677898681,-5.834212892818393,15.476258803608726,6.242114409741010,-0.088460110333941,0.241901949939580,1
71.483999999999995,5.475866949382923,0.251537765358930,1.839489753088396,3.388987555291260,-0.712432915442584,-0.278203376612684,-3.822293517991775,-1.570508637305129,0.927285731336108,-5.670137241236667,14.192760117831702,5.829807831922044,-0.086647278248883,0.211389516214724,1
71.495999999999995,5.516257980623971,0.242879447535462,1.836219712328589,3.342718049901249,-0.730301567098801,-0.266670778026839,-3.888756091918089,-1.411239725518101,0.993608881974275,-5.402860806160657,12.372803232067778,5.227233798329502,-0.084380709933747,0.166559620644597,1
71.504000000000005,5.542874827802049,0.236992906366065,1.834118579248170,3.311437124046313,-0.741207913476552,-0.258558829803171,-3.931220158598922,-1.316873756037603,1.033856723476752,-5.211460872100369,11.227614542694001,4.836146310894997,-0.083165609789626,0.137298860275880,1
71.516000000000005,5.582327522035342,0.228006700803010,1.831091669948757,3.263886485829693,-0.756244926024538,-0.245815609749760,-3.993924230573162,-1.192802515457698,1.089081150008748,-5.230525231850811,9.473761751393733,4.370079226407629,-0.081844388513206,0.083149201591070,1
71.523999999999987,5.608310362199401,0.221919356419031,1.829160362069002,3.231767822493324,-0.765496015759975,-0.236966370939067,-4.035720830577954,-1.121429017817301,1.122823856090004,-5.214961342968471,8.379409210338091,4.066556944426982,-0.081320768474427,0.047864481791643,1
71.535999999999987,5.646799505809196,0.212654961443254,1.826398747821139,3.182964934960104,-0.778387414717283,-0.223210437874893,-4.097966890784432,-1.030204093985849,1.168942700101723,-5.151579956227033,6.846006907334161,3.622080100078205,-0.081058088791993,-0.003840018922073,1
71.543999999999997,5.672131652062664,0.206395459114795,1.824650773364215,3.150017017713379,-0.786420282103302,-0.213746088877829,-4.138922284663365,-0.979282837700048,1.196759078453072,-5.083992990144563,5.893415984214039,3.332977157714266,-0.081223862096062,-0.037494633407556,1
71.555999999999997,5.709632453095163,0.196889774695816,1.822172941552332,3.100008608001744,-0.797673565361894,-0.199145217047106,-4.192697071010691,-0.885147674481204,1.237135681157094,-3.672676117557323,10.716123769029133,3.468514225475925,-0.081030596266172,0.100236861056262,1
71.564000000000007,5.734298065353483,0.190481053775341,1.820619666003296,3.066361038229852,-0.804373126400540,-0.189136253806980,-4.217765539205013,-0.785052994980733,1.265186264610930,-2.600331550814053,14.233687719733334,3.529481456322526,-0.079769787583636,0.214654328711566,1
71.576000000000008,5.770790060201998,0.180776404571613,1.818442139247603,3.015586974233744,-0.812700475836118,-0.173700750643330,-4.243797435188135,-0.603018509583480,1.307213764702830,-2.089691490962146,14.646032162978910,3.447932778048536,-0.076809398522963,0.226109382170010,1
71.583999999999989,5.794778776115622,0.174256729329291,1.817094656540862,2.981569711214858,-0.817068248699192,-0.163133591623617,-4.260515286905668,-0.490448681329056,1.334464054146015,-2.087425139413033,13.503039225449008,3.363983467645118,-0.075178275612242,0.181794532863593,1
71.595999999999989,5.830250255815995,0.164420366877683,1.815234094279343,2.930293751492733,-0.822021321253778,-0.146880960074107,-4.285419568333777,-0.338345220835049,1.374041652602687,-2.058236303404237,11.862095644825448,3.230883540044569,-0.073388922744607,0.116708116618538,1
71.603999999999999,5.853555297449992,0.157834358936228,1.814103289666371,2.895944880481811,-0.824359753906987,-0.135786224138278,-4.301750239612295,-0.247657508033438,1.399517954651275,-2.022285621306446,10.816160109151612,3.137603687641191,-0.072625618717148,0.074241077598271,1
71.616000000000000,5.887996332559645,0.147927215899397,1.812575513525438,2.844179966327029,-0.826589347628677,-0.118769568273574,-4.325580443434876,-0.126938503798985,1.436298660902342,-1.944807172996452,9.317593032261437,2.991264955763763,-0.072110277020120,0.011926376782677,1
71.624000000000009,5.910611189106484,0.141311213621478,1.811671571643485,2.809513768866865,-0.827316956290480,-0.107184533954482,-4.340880013901462,-0.056234497812719,1.459824437878352,-1.878134065286108,8.364454772207935,2.889656805690278,-0.072177835670204,-0.028692851951280,1
71.636000000000010,5.944012278266317,0.131381670398414,1.810491285577335,2.757290745873882,-0.827422708457733,-0.089462340081471,-4.362712463794813,0.035892969737072,1.493555336480025,-1.733984556309972,7.109885986694545,2.694821845699381,-0.072880773538790,-0.084619313257509,1
71.643999999999991,5.965930845397494,0.124764034101011,1.809823599100617,2.722331533794990,-0.826912999856605,-0.077433394454173,-4.377337264214679,0.090919002763442,1.512971590753661,-1.919023958972071,6.648500782909318,2.162705506774697,-0.073771902626150,-0.138014414072962,1
71.655999999999992,5.998283084495032,0.114849490179646,1.809003899494713,2.669659251921142,-0.825359536140599,-0.059140527584429,-4.401860858835872,0.166649460245317,1.534320192711496,-2.161290020424084,5.977416333749752,1.403002583120460,-0.075900610098824,-0.216435939558436,1
71.664000000000001,6.019499311459168,0.108252447426498,1.808579982846473,2.634373676530442,-0.823839717065474,-0.046826257676070,-4.419717899830772,0.212727234955241,1.543605431888290,-2.299981280831186,5.543859290579175,0.921606716977909,-0.077837359525995,-0.267602872723547,1
71.676000000000002,6.050792900049000,0.098383237935916,1.808129422474944,2.581167028496890,-0.820903095729940,-0.028253348822112,-4.448406736985209,0.275449936083854,1.550508500670619,-2.474990259542342,4.913993928054680,0.236146791208626,-0.081501074993621,-0.342682146733225,1
71.683999999999983,6.071299673920773,0.091825238156508,1.807953022747164,2.545499513185560,-0.818546612221610,-0.015846394250154,-4.468599208803710,0.313129042680569,1.550652666115332,-2.570336525049338,4.507568340067156,-0.196966729642299,-0.084438881407578,-0.391620912247630,1
71.695999999999984,6.101523342023532,0.082026835392466,1.807874384464439,2.491749060485385,-0.814345740723914,0.002722334446534,-4.483191065955086,0.400739220369086,1.541815858947140,0.438382436969517,10.704687857904940,-1.306037381259707,-0.087971556708281,-0.163193571933517,2
71.703999999999994,6.121313954032696,0.075525895143881,1.807945374862056,2.455919551955907,-0.810753340074679,0.015007647389015,-4.471514104565236,0.502640882474711,1.528614474640150,2.442537490919245,14.665292717120867,-1.979568039181534,-0.088576299831195,0.011448285947346,2
71.715999999999994,6.150463940039847,0.065837643186610,1.808234891451362,2.402502303555614,-0.803542560659936,0.033186945727939,-4.426184283418951,0.708757183179176,1.499564943960185,5.031315835308690,19.468164348110605,-2.831725147677729,-0.086897356962828,0.267116638616997,2
71.724000000000004,6.169542782429195,0.059433700968774,1.808548120925424,2.367269981690155,-0.797221435128958,0.045087625031849,-4.379945414797515,0.874854420066088,1.474976415606814,6.494567164433085,21.966438559015522,-3.303171210996517,-0.084093188716807,0.433365917629406,2
71.736000000000004,6.197636677414564,0.049936584116411,1.809194374650801,2.315224672077409,-0.785068115589335,0.062534775370999,-4.290619489182033,1.156261416205069,1.431729357778170,8.321826699543182,24.749714656043221,-3.879791025555157,-0.077426767478070,0.676445401996392,2
71.743999999999986,6.216021907313882,0.043695181395348,1.809740130218161,2.281177027732084,-0.775011345067678,0.073861039383211,-4.219974409758582,1.359616131668065,1.399429485386868,9.309884034168027,26.013970956912619,-4.185249327020335,-0.071381539440508,0.834302102139793,2
71.755999999999986,6.243094966453718,0.034500528428438,1.810725988244239,2.231237766995982,-0.756791140168144,0.090343662808472,-4.100912952196342,1.679270435499520,1.346968964465733,10.471813011731534,27.108695406858789,-4.538261496464965,-0.059979417197463,1.064792718204130,2
71.763999999999996,6.260814546227645,0.028502256792154,1.811491449304294,2.198772107813466,-0.742485919498359,0.100972223451847,-4.014734848376578,1.897358451827327,1.309941152726954,11.047217623844121,27.352012908593849,-4.710874735092686,-0.050860980945685,1.214256839479644,1
71.775999999999996,6.286913981452251,0.019736908493431,1.812796060267770,2.151406715397178,-0.717750666344065,0.116347531813833,-3.878322193230524,2.224609048936086,1.252256951799076,11.635251608068980,27.066379157254151,-4.887777707641645,-0.034974935064377,1.432158587241315,1
71.787999999999997,6.312455000594023,0.011291811176862,1.814280977145864,2.105713170727882,-0.689126129083912,0.131020016127343,-3.736698373078280,2.544193058293044,1.192973198694749,11.920860549101535,26.090957555637118,-4.979971037746708,-0.016519388135818,1.642507014021392,1
71.796000000000006,6.329182150404534,0.005862423340200,1.815366886810754,2.076201761242665,-0.667947514334033,0.140404134042138,-3.641104407788956,2.749146674835217,1.153027537953510,11.958198178869415,25.105954395447966,-5.001595471975761,-0.002832950022255,1.778543009107382,1
71.803999999999988,6.345676268681620,0.000608933690066,1.816526589915979,2.047455077623179,-0.645163372931541,0.149468294274993,-3.545666620138509,2.945261070980504,1.113019893695261,11.883247328496813,23.885697122038913,-4.996130147022774,0.011928347925754,1.911221972645523,1
71.815999999999988,6.369993846845622,-0.006914238966496,1.818398910626644,2.005756687645674,-0.608151017228871,0.162465746705007,-3.404674889028469,3.219035660597261,1.053323678189954,11.578787268579971,21.672525541203093,-4.945585268018282,0.036026908985421,2.103945983801881,1
71.823999999999998,6.385931932564116,-0.011674623680916,1.819731922038771,1.978886641010532,-0.581722850726824,0.170734638263966,-3.313262267731406,3.385747609942095,1.013974763497666,11.259796761540407,19.979165037007249,-4.888978174850395,0.053357860415569,2.228232368472045,1
71.835999999999999,6.409443218453381,-0.018405965776416,1.821852343238668,1.939924070688510,-0.539720979225064,0.182552824379279,-3.181765450674667,3.608949601335028,0.955944771541291,10.627232275773999,17.173112945799677,-4.778232239978814,0.081185013015339,2.408367511325738,1
71.847999999999999,6.432496230855905,-0.024617980646498,1.824110437883575,1.902491419432455,-0.495228133437833,0.193683079951865,-3.058381925103070,3.802316082337943,0.899342829478203,9.941140209367946,15.068777490044429,-4.655729284802333,0.108888507068364,2.209485979945914,1
71.856000000000009,6.447619132781996,-0.028456874898283,1.825688285930666,1.878337727551527,-0.464341968037057,0.200729701733962,-2.980631269147731,3.917417130089265,0.862420156886513,9.498469586366305,13.712665830334728,-4.575073604862016,0.126041029287959,2.078913233807634,1
71.863999999999990,6.462551255667814,-0.032045111525765,1.827321332291868,1.854791999574100,-0.432577995551629,0.207483514501279,-2.906375486736705,4.021816971563479,0.826139499778666,9.067395861918886,12.393392744560215,-4.495224932575514,0.142155417351028,1.949952440828646,1
71.875999999999991,6.484602066471790,-0.036943046690047,1.829869330439239,1.820553188292624,-0.383470215738868,0.217076381520485,-2.801343454710100,4.158991202723748,0.772908202175477,8.442189919399112,10.482467704119477,-4.376958725332142,0.164408707082588,1.759533663532517,1
71.884000000000000,6.499077560724301,-0.039876852646082,1.831630302719177,1.798408264932157,-0.349876054510837,0.223120416922133,-2.735424394151075,4.237909985323990,0.738204439975865,8.039430803955977,9.253120318686356,-4.299114870503011,0.177984178115096,1.634602753450159,1
71.896000000000001,6.520463782162039,-0.043767700613830,1.834359668635101,1.766147860488330,-0.298398059625232,0.231672111204822,-2.642476571166239,4.338199197533777,0.687308485525125,7.455976579219295,7.474777232828216,-4.183842177905233,0.196489540544189,1.450228800499658,1
71.904000000000011,6.534509033961578,-0.046015449460555,1.836234683998433,1.745242606196984,-0.263465550773051,0.237037507393987,-2.584337533721484,4.393404710757634,0.654141704866216,7.080575020460786,6.332290622731527,-4.107984802148664,0.207606692204019,1.329327773314390,1
71.916000000000011,6.555267872519833,-0.048859007686109,1.839125057314650,1.714727179392078,-0.210328830166312,0.244594138940152,-2.502653172450864,4.459414795009992,0.605521499557875,6.537447248531270,4.681965970423633,-3.995677935556258,0.222485023817556,1.150998644709518,1
71.923999999999992,6.568906155404044,-0.050398560321648,1.841100847730959,1.694911402103054,-0.174515068993138,0.249311239486449,-2.451756462915564,4.492613981408240,0.573852156253986,6.188459945478588,3.623320365966992,-3.921788459070643,0.231224453762621,1.034127500421753,1
71.935999999999993,6.589070311241577,-0.052168340930305,1.844132778397448,1.665923655007030,-0.120379902385793,0.255917731977755,-2.380543115060999,4.526860235605268,0.527448663472044,5.684253988392047,2.096518359141263,-3.812419367718227,0.242596651047520,0.861843196162500,1
71.944000000000003,6.602322001192806,-0.052986362781658,1.846196674823746,1.647057728813979,-0.084108446286968,0.260016093299183,-2.336369766735990,4.539700093888113,0.497237587347360,5.360751391403882,1.118739145926686,-3.740478969284406,0.249038956935824,0.749001934771408,1
71.956000000000003,6.621919985133463,-0.053668586405345,1.849351599494315,1.619395932910305,-0.029585702083582,0.265716195319266,-2.274862870488510,4.544608577500102,0.452992335112384,4.894083238208021,-0.288968270520172,-3.634019240281449,0.257025916378992,0.582762454857784,1
71.963999999999984,6.634802768174256,-0.053759888598766,1.851491516207085,1.601350426247955,0.006752239606715,0.269224594210592,-2.236912370154670,4.538677065642708,0.424200734830073,4.595149548989035,-1.188810551566561,-3.564008857264525,0.261251695868431,0.473951076364165,1
71.975999999999985,6.653859207545450,-0.053352513907108,1.854751734850824,1.574827868829221,0.061099333095491,0.274060890610221,-2.184374837654208,4.516585954367608,0.382055823041686,4.164655815743234,-2.481783699773741,-3.460429715595339,0.265974313956786,0.313756420796161,1
71.983999999999995,6.666388279953404,-0.052719418054834,1.856956153929704,1.557483178153523,0.097143727321641,0.277007331868146,-2.152164850544374,4.493412892716670,0.354645290931370,3.889388987334852,-3.306573352429544,-3.392330043942636,0.268064164705331,0.208974925199244,1
71.995999999999995,6.684924213434991,-0.051231206439711,1.860304806671187,1.531927616967868,0.150797837750218,0.281021255275225,-2.107886655339581,4.446573833139221,0.314543398610767,3.493726917110383,-4.489104821571473,-3.291602352466378,0.269643337925780,0.054825093976868,1
72.004000000000005,6.697112474685488,-0.049882932681713,1.862562762636012,1.515173605937671,0.186218674012746,0.283432979419912,-2.080952750112713,4.407631807519159,0.288475915497588,3.241238653898423,-5.241680994295031,-3.225393846709200,0.269677857591356,-0.045926518722959,1
72.016000000000005,6.715145636334116,-0.047332547553476,1.865983806827145,1.490426732086007,0.238706647964927,0.286664821894342,-2.044250514620684,4.338211271770291,0.250360308030027,2.879086116778285,-6.317995640581869,-3.127488106159871,0.268234482430813,-0.194031525599706,1
72.023999999999987,6.727003874882177,-0.045284625493034,1.868284871430458,1.474162376244607,0.273202802661517,0.288568312987650,-2.022145888334569,4.284916536589582,0.225598248062658,2.648501874489480,-7.001152326522757,-3.063150979412727,0.266294268671371,-0.290753255402102,1
72.035999999999987,6.744548967496065,-0.041699765646497,1.871763058956875,1.450079285328655,0.324093975708015,0.291057237821030,-1.992362471300614,4.194997177005692,0.189412784439968,2.318557367568418,-7.975407273200367,-2.968037328399170,0.261949241616752,-0.432813437933229,1
72.043999999999997,6.756086039506818,-0.038973467818305,1.874097326133774,1.434212322285923,0.357392094536605,0.292478231381282,-1.974657674384881,4.128710558362288,0.165918919918700,2.109016353268251,-8.591893310205775,-2.905551552359114,0.258114892090219,-0.525505284838881,1
72.055999999999997,6.773154997496008,-0.034390034326652,1.877618180958675,1.410660993807052,0.406296628385737,0.294262285041468,-1.951161758342314,4.020292562144451,0.131608059981789,1.809999000652882,-9.468177947555288,-2.813199767365022,0.250989109628432,-0.661520643024380,1
72.064000000000007,6.784377998633424,-0.031011831836316,1.879976251935845,1.395107578922606,0.438150026808652,0.295225776054730,-1.937444419572073,3.942320360933114,0.109345566187397,1.620654172750495,-10.020697018155454,-2.752545072313026,0.245341221992757,-0.750182607032941,1
72.095999999999989,6.828037341901608,-0.015030131299798,1.889464755236043,1.333817848494869,0.558821748763973,0.297356195317510,-1.896791015761570,3.589179904697480,0.025061004456719,0.940398630167494,-11.986584892589544,-2.517160270492460,0.215850148708484,-1.088710931478235,1
72.095999999999989,6.828037341901608,-0.015030131299798,1.889464755236043,1.333817848494869,0.558821748763973,0.297356195317510,-1.896791015761570,3.589179904697480,0.025061004456719,0.940398630167494,-11.986584892589544,-2.517160270492460,0.215850148708484,-1.088710931478235,1
72.107999999999990,6.843906841269793,-0.008069348342142,1.893034115260783,1.311118397474874,0.601013562851268,0.297477802466078,-1.887006277506282,3.441720106805221,-0.004591383189291,0.647626422784495,-12.491406168669721,-2.411882660483306,0.202091676691616,-1.193304090361196,1
72.116000000000000,6.854335453601096,-0.003152173729825,1.895413586979112,1.296040121967536,0.628146103080102,0.297364908434995,-1.882927181493876,3.341230910595520,-0.023505678979703,0.374186265641908,-12.629438247221906,-2.317048014002692,0.192355183789215,-1.240685741961085,1
72.128000000000000,6.869752443591564,0.004622496696658,1.898979616219720,1.273462475751047,0.667326858383074,0.296919359824061,-1.880788808646837,3.188513287889701,-0.050475881643503,-0.013302574799540,-12.820288385820579,-2.178775922200347,0.177047723258132,-1.310257545017369,1
72.136000000000010,6.879879951750508,0.010062047449147,1.901353171871933,1.258413110838210,0.692423449021102,0.296446792854039,-1.881877105378496,3.085478870055752,-0.067546439006930,-0.256820409939024,-12.936916747091706,-2.089209091911399,0.166383606314979,-1.355638297492635,1
72.148000000000010,6.894845314669357,0.018589545609189,1.904905077845251,1.235803693772370,0.728513801492976,0.295488971967860,-1.887046219271349,2.929261161294756,-0.091829389774768,-0.600405524438547,-13.096281083518054,-1.958714829568512,0.149714723209638,-1.422208751861989,1
72.155999999999992,6.904671302849736,0.024510272728247,1.907265885751606,1.220685788949238,0.751527763746341,0.294692564279624,-1.892716510823228,2.824101340781048,-0.107159914632256,-0.815302161382643,-13.192329205537916,-1.874251157274756,0.138163000208267,-1.465588605212479,1
72.167999999999992,6.919182999672610,0.033728132118582,1.910793950174169,1.197907102491230,0.784463926787967,0.293274676998736,-1.904334441959785,2.665000971701493,-0.128908711682672,-1.116918460482978,-13.321433677294426,-1.751289456440964,0.120192721502410,-1.529157710894906,1
72.176000000000002,6.928705218410427,0.040087985124736,1.913135874776961,1.182634656477686,0.805356814371181,0.292188219473389,-1.914027129215338,2.558119221618027,-0.142599639716090,-1.304472656148327,-13.397712665370188,-1.671766576404767,0.107793410425232,-1.570536665120929,1
72.191999999999993,6.947381426156688,0.053291963568392,1.917791518825536,1.151828147881299,0.844565960837798,0.289699260330843,-1.937702524431860,2.342678438302534,-0.168111523141060,-1.648028834121677,-13.527347700134253,-1.518489455348969,0.082017700562493,-1.650893494623287,1
72.195999999999984,6.951973219335106,0.056688824472118,1.918948954876855,1.144063939967416,0.853828380641169,0.289014765664441,-1.944454406118828,2.288512979876713,-0.174111052756376,-1.727489644459122,-13.555073237587795,-1.481353446763965,0.075374881922189,-1.670482477217688,1
72.207999999999984,6.965561471815417,0.067095628561718,1.922404177349748,1.120600613130554,0.880312740331484,0.286821407410539,-1.966546743077286,2.125402605914802,-0.191231421792901,-1.950838843029006,-13.627261556170165,-1.372734819855737,0.054981892936513,-1.728048885526258,1
72.215999999999994,6.974463177776507,0.074204979627859,1.924692513571020,1.104804329228560,0.896879452488251,0.285248381310340,-1.982706382929998,2.016223269963708,-0.201931611511978,-2.087454959307317,-13.666386101381979,-1.302615596963104,0.041007459655279,-1.765426041503038,1
72.231999999999985,6.991884791910996,0.088803786674534,1.929229774552555,1.072802993637139,0.927386990539077,0.281856570236803,-2.018112827916714,1.797066487295211,-0.221685190389684,-2.332078740500338,-13.723589615901524,-1.167768950200043,0.012177548542416,-1.837779274506925,1
72.236000000000004,6.996159833958039,0.092527564755612,1.930355414983082,1.064711736604709,0.934465439958590,0.280960574565686,-2.027552578532512,1.742151552021032,-0.226290907625344,-2.387414516450006,-13.733595504134195,-1.135162586763099,0.004791188580775,-1.855367357976835,1
72.248000000000005,7.008789649489669,0.103862701046605,1.933710320487222,1.040191308081089,0.954406160840190,0.278162849450990,-2.060644877605099,1.583249331319795,-0.240036974067423,-3.117140150400326,-12.759861355412118,-1.155345574614721,-0.017988374903941,-1.940838900910506,1
72.255999999999986,7.017044963523380,0.111547538796528,1.935927843250060,1.023601516117479,0.966670489448983,0.276205453245122,-2.087404324261129,1.483655562430445,-0.249327811253173,-3.568060401071569,-12.142795654633098,-1.167146461179126,-0.033738530654109,-1.996527745426393,1
72.267999999999986,7.029176814697019,0.123250975222420,1.939224019785552,0.998280401772332,0.983621500555256,0.273129100785019,-2.134031000647969,1.343270680264612,-0.263428183940923,-4.192900797563235,-11.263901364479002,-1.182440706017436,-0.058188759474304,-2.078122736040760,1
72.275999999999996,7.037094402781388,0.131161982708571,1.941400521796260,0.981069823171580,0.994013211460652,0.270983741828375,-2.169124618328732,1.255397857359579,-0.272923067082881,-4.576139083872832,-10.708283604474463,-1.191075087986489,-0.075026848432720,-2.131227212343960,1
72.291999999999987,7.052510625156751,0.147219757224792,1.945700511832186,0.945747583354298,1.012774317508154,0.266463881982040,-2.247994195622829,1.092516190947105,-0.292095806470344,-5.265794751916022,-9.667288212092663,-1.204726187069466,-0.109956858835065,-2.234334923094714,1
72.296000000000006,7.056275574944848,0.151279492167151,1.946764017735877,0.936713057729656,1.017067703739188,0.265285853608104,-2.269373224228329,1.054340934890617,-0.296920167108000,-5.422707493677636,-9.421271586314960,-1.207406165929323,-0.118944546344363,-2.259465758729315,1
72.308000000000007,7.067351142720931,0.163557555669314,1.949925721522381,0.909079545063677,1.029058692887914,0.261635750251897,-2.336990413182155,0.945575995645168,-0.311420269627226,-5.799169317582948,-8.710541745177704,-1.199141339809589,-0.146495625272588,-2.329371128907537,1
72.315999999999988,7.074548497199892,0.171819550196108,1.952008740290753,0.890196391746866,1.036349478853496,0.259106286257094,-2.384001034586588,0.877728440760697,-0.320912001844624,-5.951512148776276,-8.254576196214618,-1.173845826685109,-0.165291937282777,-2.369563366792509,1
72.327999999999989,7.085057476353297,0.184316610655933,1.955094574698151,0.861154755946131,1.046303700702959,0.255171725821261,-2.456684773828038,0.782604742802251,-0.334773388896826,-6.158112715340375,-7.606449185580065,-1.136504576936289,-0.194080678454919,-2.428237271467103,1
72.335999999999999,7.091867572289773,0.192711443368258,1.957125139299229,0.841302871148904,1.052325541732965,0.252457432734198,-2.506451038866121,0.723400561714969,-0.343767215486516,-6.281576600651315,-7.197657274227949,-1.112003952847229,-0.213659309194170,-2.466276906481537,1
72.347999999999999,7.101780920805957,0.205389404360058,1.960129559614733,0.810769092038465,1.060502260582300,0.248253034153092,-2.582840854774376,0.640544360688220,-0.356893534294513,-6.445943718680946,-6.618411326502914,-1.075830124586703,-0.243589239416744,-2.521721906850111,1
72.356000000000009,7.108183870464015,0.213893362972254,1.962104071999029,0.789899042204377,1.065418756543270,0.245363713323893,-2.634799632069103,0.589065102662673,-0.365405021452678,-6.541968729762317,-6.254299992001675,-1.052091375177516,-0.263907136827577,-2.557608938993864,1
72.368000000000009,7.117471059855483,0.226719037335040,1.965021826933241,0.757807301635805,1.072049794053472,0.240903947757922,-2.714072316275422,0.517135898994057,-0.377819129553709,-6.666241435809639,-5.740236650063533,-1.017036095292662,-0.294913678014464,-2.609825035056393,1
72.375999999999991,7.123446096761778,0.235311502051779,1.966936883546393,0.735880240226009,1.076007107958855,0.237849863138525,-2.767834140992893,0.472675461253305,-0.385576319804558,-6.772075082492826,-5.378066015728499,-0.922756150480671,-0.315890528250568,-2.634275924832757,1
72.387999999999991,7.132075414897836,0.248256108571901,1.969763064582694,0.702175231351130,1.081304433725709,0.233159810122601,-2.849937415945389,0.411227930288499,-0.395827355560466,-6.907130801485765,-4.870158444917903,-0.786839746829072,-0.347715871002493,-2.669696769068765,1
72.396000000000001,7.137601027672257,0.256919294599161,1.971615611319156,0.679153875018378,1.084441827712414,0.229968948142021,-2.905501229726739,0.373541497514618,-0.401772122717098,-6.981807597115679,-4.554452576831019,-0.699826287495264,-0.369164999161819,-2.692473671607045,1
72.408000000000001,7.145539660293038,0.269958212391741,1.974346118707273,0.643782858526801,1.088607209181108,0.225100338697530,-2.989847580224874,0.321569373878025,-0.409412299268045,-7.071521378810559,-4.114114200552193,-0.574580866492523,-0.401673648989892,-2.725383534985798,1
72.416000000000011,7.150593643561550,0.278677015126409,1.976133772917583,0.619637274960099,1.091051059624925,0.221807514860067,-3.046608795331038,0.289755976574423,-0.413686927034681,-7.116889107882648,-3.842052241640061,-0.494530276004180,-0.423561575327602,-2.746486450285908,1
72.428000000000011,7.157807881435923,0.291789411698085,1.978765543624026,0.582564274021480,1.094260771429963,0.216810462188657,-3.132318885084561,0.245949837459061,-0.418925139301121,-7.164000482263905,-3.465104540150861,-0.379504840246949,-0.456703312614678,-2.776885332807407,1
72.435999999999993,7.162367549646393,0.300551077608356,1.980486590914920,0.557276255965220,1.096119994797870,0.213447706654291,-3.189709440842924,0.219164219725639,-0.421665898083289,-7.181864066928201,-3.233935987832788,-0.306119405366255,-0.478996557385930,-2.796314260869277,1
72.447999999999993,7.168823137739162,0.313719391473719,1.983017527904998,0.518482832569403,1.098525568941628,0.208369867547336,-3.275835456770652,0.182449759653210,-0.424296874312646,-7.169043582697136,-2.891432081555672,-0.134240977074828,-0.512639347865008,-2.810632890727045,1
72.456000000000003,7.172865562272415,0.322513192216859,1.984670900234708,0.492046927105271,1.099894899924887,0.204972366517136,-3.333114506585382,0.160159912893321,-0.424933792236458,-7.149245589620405,-2.683729373042810,-0.025796053035245,-0.535160460906993,-2.819563327577089,1
72.468000000000004,7.178528085064421,0.335722710663216,1.987099977267364,0.451535795213566,1.101630563725563,0.199875056466926,-3.418648837561083,0.129680842449209,-0.424310479045395,-7.103273385361148,-2.401976254332623,0.127911410587435,-0.569071164491572,-2.832036008269430,1
72.475999999999985,7.182030369342375,0.344539703685319,1.988685412790050,0.423959716707851,1.102592986151130,0.196485708927965,-3.475315914610503,0.111149593103257,-0.422897550265687,-7.062121591514283,-2.233346930359587,0.224554620705449,-0.591758579942708,-2.839735812342498,1
72.487999999999985,7.186865634455030,0.357778196011108,1.991012867388847,0.381749190955089,1.103771582543537,0.191430441959090,-3.559617891743091,0.085733595245197,-0.419374020121818,-6.985225073511129,-2.008093979321988,0.361022293907262,-0.625900277649480,-2.850362543869417,1
72.495999999999995,7.189805125390616,0.366610943702168,1.992530923614060,0.353049351236861,1.104394641315829,0.188087925654263,-3.615260647458581,0.070207556408044,-0.416141117866400,-6.924186127090019,-1.875742795318876,0.446477556278803,-0.648729382854388,-2.856831715165564,1
72.507999999999996,7.193779431920222,0.379868207230106,1.994758154003106,0.309170117812297,1.105106409317508,0.183129319173481,-3.697733601302851,0.048766171430845,-0.410053030252098,-6.818537833647222,-1.702854898142109,0.566615563335065,-0.683065155700044,-2.865612497527061,1
72.516000000000005,7.196133885181641,0.388710475633300,1.996210116490198,0.279370880989504,1.105443001696381,0.179867664673616,-3.751970062183261,0.035497254464831,-0.405281896220490,-6.739384900428642,-1.616350005691472,0.625640595333217,-0.705984021044969,-2.864044744168728,1
72.528000000000006,7.199214262125483,0.401977890278483,1.998339534457887,0.233865076347361,1.105755337694055,0.175051354233514,-3.832066952001262,0.016774734935498,-0.397271134902695,-6.607517536748639,-1.508333461768960,0.708332253294820,-0.740335257090235,-2.861028300686259,1
72.535999999999987,7.200961994765398,0.410824342369260,1.999727294174021,0.202998110262347,1.105841917484712,0.171896407301629,-3.884546099084154,0.004947642246450,-0.391397158188055,-6.511168519835084,-1.450255003705168,0.759663300493152,-0.763213903188645,-2.858574129401308,1
72.547999999999988,7.203116420521969,0.424094389279885,2.001762094536809,0.155918426550792,1.105798623777135,0.167256091775667,-3.961754556134215,-0.012028968530436,-0.381845826789612,-6.354532229966103,-1.383088170627542,0.831135094712405,-0.797491514095362,-2.854228059028909,1
72.555999999999997,7.204236451889566,0.432940276066595,2.003087996086188,0.124022225527004,1.105658501363037,0.164228399023167,-4.012146112957942,-0.022958947127084,-0.375018612360307,-6.242345622337807,-1.351066139929295,0.875197933575035,-0.820312212588888,-2.850887469817328,1
72.567999999999998,7.205434058913634,0.446206138541925,2.005031992108427,0.075431250241566,1.105286561407296,0.159792688163410,-4.085990955264759,-0.038971448562229,-0.364144772397941,-6.062951018815793,-1.321247302033823,0.936080895422129,-0.854489605819258,-2.845211772554997,1
72.576000000000008,7.205906242503013,0.455047071449375,2.006298761642232,0.042550647261644,1.104932636804933,0.156909860056379,-4.133989657818938,-0.049491435745464,-0.356526868717477,-5.935368233646853,-1.307565235902114,0.962647294235650,-0.877224376360916,-2.835868013759709,1
72.588000000000008,7.206117507951397,0.468302324376886,2.008156288812127,-0.007479787560800,1.104244985406053,0.152701357236067,-4.204011632877508,-0.065095160140716,-0.344849838653164,-5.733122041054941,-1.296558892613045,0.982864705246094,-0.911122954116936,-2.813845165638172,1
72.595999999999989,7.205922655026570,0.477134090545442,2.009366948598565,-0.041293850857032,1.103682714544994,0.149974135421361,-4.249316417590342,-0.075477988757525,-0.336940529867658,-5.592294851998579,-1.300627982650369,0.994179373224081,-0.933574412612153,-2.798997333762145,1
72.607999999999990,7.205119583060609,0.490372472929594,2.011142665905940,-0.092683078523612,1.102682912367705,0.146002784456704,-4.315115274881275,-0.091200334911334,-0.324923609665137,-5.372512251836143,-1.322921344701392,1.008025992512652,-0.967027555411892,-2.776476686255496,1
72.616000000000000,7.204239579503837,0.499190904443644,2.012300376808387,-0.127374311546122,1.101910729473203,0.143435733606095,-4.357490369038934,-0.101878899842105,-0.316829481940204,-5.220556413734929,-1.348048757700627,1.015242555695783,-0.989178738607100,-2.761296988122675,1
72.628000000000000,7.202395861709260,0.512406106287652,2.013999086923219,-0.180034474825288,1.100589972311190,0.139707087945974,-4.418732201793532,-0.118351731018048,-0.304595626871076,-4.984911661380313,-1.400247669889243,1.023162418253478,-1.022176490462854,-2.738278541230915,1
72.636000000000010,7.200813764532380,0.521206918430680,2.015107083958737,-0.215542131918864,1.099597900581775,0.137303104417435,-4.457966089012244,-0.129724823408897,-0.296395709019935,-4.822927578699858,-1.444208493955420,1.026572857383905,-1.044020761032838,-2.722766976841341,1
72.648000000000010,7.197904914867803,0.534392332715033,2.016733674735968,-0.269378807479911,1.097935731487401,0.133819722642719,-4.514295708737332,-0.147435849797946,-0.284213715003210,-4.564204860610243,-1.510433362811788,1.003675994530987,-1.076519025559107,-2.693585565235284,1
72.655999999999992,7.195605041206374,0.543170970638869,2.017795222995171,-0.305637356225340,1.096707361775114,0.131577965405038,-4.550106589034954,-0.159727562746307,-0.276246308321980,-4.388040885003354,-1.563665739878324,0.988140738991068,-1.097989605493027,-2.674048360938158,1
72.667999999999992,7.191608540768151,0.556319501915737,2.019354551734790,-0.360548144730362,1.094675914354052,0.128333590108135,-4.601152683949898,-0.179032198561103,-0.264530275136802,-4.118643531756799,-1.656241499221646,0.964457657797472,-1.129901753890381,-2.644618159652698,1
72.676000000000002,7.188576571151050,0.565071037420381,2.020372837446505,-0.397487219352503,1.093189930110982,0.126248040085866,-4.633372209858573,-0.192556787861785,-0.256878600426921,-3.935824648677328,-1.725929980974065,0.948430327333992,-1.150979931140570,-2.624915095569234,1
72.688000000000002,7.183472008156120,0.578174947379332,2.021869590069709,-0.453364407634270,1.090752284092419,0.123233201217641,-4.678935090267036,-0.213948838040048,-0.245643292989880,-3.657125882259294,-1.841555643126533,0.924056528008583,-1.182300987615421,-2.595236104604371,1
72.695999999999984,7.179695058906653,0.586893960385502,2.022847673596845,-0.490910910623760,1.088980881927856,0.121297449571187,-4.707439224067726,-0.229013689862475,-0.238316561012664,-3.468553415641473,-1.925540170161297,0.907599899800094,-1.202983444986005,-2.575367180734709,1
72.707999999999984,7.173464213985540,0.599944677638849,2.024286343936329,-0.547643034413879,1.086090621751563,0.118502539480816,-4.747324376114215,-0.253125230146872,-0.227471080142144,-3.170928487601687,-2.162194361861224,0.934218959089449,-1.233700964690658,-2.541709844410005,1
72.715999999999994,7.168930889332484,0.608625111845642,2.025227166672233,-0.585720803803425,1.083993305776385,0.116713549309308,-4.771830289157612,-0.271592753289337,-0.219668423940438,-2.955170763503520,-2.453933086047960,1.015251923894628,-1.253924990492069,-2.514305434110144,1
72.727999999999994,7.161557840307504,0.621612738993687,2.026612213670695,-0.643187703826635,1.080547152215937,0.114153321226784,-4.805331127507588,-0.303623944027076,-0.206819453220948,-2.627556514905164,-2.882806983730560,1.123666378266026,-1.283850492730067,-2.473298135613331,1
72.736000000000004,7.156258348560581,0.630247148244567,2.027518919308632,-0.681712084756712,1.078022912943854,0.112535421605154,-4.825469790280005,-0.327808942110539,-0.197570320981872,-2.406824139489409,-3.162604829948235,1.187518511968320,-1.303527754551520,-2.446026147917379,1
72.748000000000005,7.147729700532833,0.643158880348385,2.028855467644276,-0.739783016353191,1.073851586349321,0.110252173282301,-4.852350718608513,-0.368232244686270,-0.182803687812506,-2.072790926107781,-3.572638191308708,1.271220042385690,-1.332635097158640,-2.405217483326431,1
72.755999999999986,7.141655989079041,0.651737599018768,2.029731744854196,-0.778665761678849,1.070788545165156,0.108830951696009,-4.868036497706330,-0.397883577017189,-0.172437619868043,-1.848458060041478,-3.839279460533991,1.319290304190216,-1.351768243452145,-2.378077918234484,1
72.767999999999986,7.131960993277685,0.664557279913905,2.031025685398416,-0.837207178501036,1.065728090484790,0.106858232392483,-4.888189395079324,-0.446304443650600,-0.156226858433985,-1.510014015618420,-4.228723501760623,1.380338335334444,-1.380061399106506,-2.337467887549399,1
72.775999999999996,7.125106788605239,0.673068461455641,2.031875665021506,-0.876359173412549,1.062022035084113,0.105650210071901,-4.899575933758425,-0.480250885362325,-0.146073231133135,-1.334977501726419,-4.259817922644263,1.159453918848119,-1.398650363165493,-2.309784969475545,1
72.787999999999997,7.114237344313980,0.685776916655308,2.033133261050459,-0.935243601606144,1.055950845297026,0.103973120046080,-4.913935159159591,-0.531748724856936,-0.134073589895843,-1.054882950492380,-4.327092573197097,0.843537689471501,-1.426119276019863,-2.268393818057729,1
72.796000000000006,7.106598063717793,0.694207137050419,2.033960823308611,-0.974586755581271,1.051557802001517,0.102925364180285,-4.921590199314227,-0.566588591401487,-0.128132761700246,-0.857543484936625,-4.384448008625951,0.642996517043074,-1.444156358059945,-2.240888534241095,1
72.808000000000007,7.094548443164134,0.706783766591980,2.035186866327871,-1.033700234689092,1.044440707748757,0.101427096229853,-4.930035994405593,-0.619799302533428,-0.122150655999235,-0.547420614669240,-4.487161950883466,0.356942465553214,-1.470800112399815,-2.199763834209111,1
72.815999999999988,7.086121037970964,0.715119074146609,2.035994400824280,-1.073155762022736,1.039337907527053,0.100459361452911,-4.933558970715202,-0.656005333104245,-0.120024454988562,-0.332280635363323,-4.565584117167374,0.175877628228727,-1.488288865106075,-2.172436184649796,1
72.827999999999989,7.072887880637386,0.727542572678881,2.037191303152462,-1.132374460978568,1.031134074871997,0.099025450969894,-4.935556897684013,-0.711561402233564,-0.119475573286575,0.001328097186671,-4.696188142790873,-0.081603866731200,-1.514112789959165,-2.131577936003642,1
72.835999999999999,7.063670952091679,0.735768472588856,2.037979673066291,-1.171856446373878,1.025290311235129,0.098065282927328,-4.934634477584749,-0.749505679913294,-0.120783022491900,0.230047752489516,-4.790805712502207,-0.244044955140641,-1.531056766016871,-2.104427920701451,1
72.847999999999999,7.049253571166219,0.748016609230852,2.039147692069774,-1.231014325543113,1.015950344114374,0.096599070725242,-4.921629138819813,-0.807228799682311,-0.123523430065575,1.921543841643011,-4.827460039825564,-0.212920527255914,-1.555591167715930,-1.984950549982891,1
72.856000000000009,7.039248151600821,0.756117968318339,2.039916514146851,-1.270314291713897,1.009337837825209,0.095604284632514,-4.901929129900373,-0.845920468941042,-0.125146444147380,2.996511118744408,-4.844484614789662,-0.192933644146092,-1.571155765590283,-1.906337372307881,1
72.868000000000009,7.023652416716641,0.768167719547849,2.041054701560292,-1.328884296933323,0.998837558334512,0.094089336714453,-4.856668132848520,-0.904155633423656,-0.127287157170662,4.531687520596615,-4.859252669604945,-0.164073940808487,-1.593331771959095,-1.789975210001730,1
72.875999999999991,7.012866336677187,0.776129072281647,2.041803329462520,-1.367582143234329,0.991448771941043,0.093065988040702,-4.816496179979295,-0.943044785178353,-0.128525336401200,5.504645953120838,-4.862120118892881,-0.145567637101788,-1.607344874335981,-1.713438837935291,1
72.892000000000010,6.990372588648506,0.791868224381569,2.043275840793702,-1.443861837300466,0.975737921676846,0.090992480077990,-4.713591520539506,-1.020783721551631,-0.130569045572320,7.332509393435378,-4.851721990256526,-0.110273906546254,-1.633550820605119,-1.562858260531828,1
72.896000000000001,6.984559511942527,0.795762958061402,2.043638765008096,-1.462656382636432,0.971615987793462,0.090469344389061,-4.683392565865812,-1.040179311865955,-0.130993150903150,7.765383213714846,-4.845859849170538,-0.101801903244401,-1.639727932534481,-1.525732317583170,1
72.908000000000001,6.966672758770632,0.807346062964705,2.044714938112077,-1.518267669109222,0.958785470319747,0.088890694401381,-4.582670923313850,-1.098189953085028,-0.132065999956718,9.007549451785335,-4.820710288495963,-0.077211187136465,-1.657374060747545,-1.415600572101907,1
72.916000000000011,6.954380749327199,0.814980797602086,2.045421830832976,-1.554636436811564,0.949847844615934,0.087831628737367,-4.508982038688171,-1.135949167100688,-0.132708837173958,9.411776896094636,-4.620228927346420,-0.083526902323995,-1.668497520246408,-1.365353993639207,1
72.928000000000011,6.935403218135815,0.826295873838811,2.046466230589040,-1.608052564333747,0.935890802490315,0.086232876055852,-4.392557652058689,-1.189648339027517,-0.133769519281028,9.985907650600526,-4.332131374851345,-0.093314568289823,-1.684434392279471,-1.290993150019413,1
72.935999999999993,6.922399095729951,0.833744565799981,2.047151804867581,-1.642869573987736,0.926236965752700,0.085159662530709,-4.311212509507562,-1.223565747521524,-0.134542826471422,10.347601298610053,-4.148305978449853,-0.100037790487411,-1.694566373863366,-1.242091936989094,1
72.947999999999993,6.902377271283408,0.844770137237620,2.048164004184454,-1.693846596761351,0.911261913010691,0.083537699130279,-4.183934678353659,-1.271749031917720,-0.135805133546060,10.859254177233547,-3.884627171451407,-0.110400671551736,-1.709036209505518,-1.169749141517584,1
72.956000000000003,6.888693546204435,0.852019208706609,2.048827950442127,-1.726967112350604,0.900965420411957,0.082447650048418,-4.095766336322582,-1.302150227239166,-0.136716580991827,11.180170751691696,-3.716707314077436,-0.117483601852772,-1.718203620483161,-1.122193293919284,1
72.968000000000004,6.867678298858113,0.862735986125863,2.049807444037273,-1.775300282141847,0.885077865757308,0.080798333138558,-3.958858418078014,-1.345294810695583,-0.138191305959164,11.631958224955405,-3.476331824004195,-0.128350840669718,-1.731246780697365,-1.051868546596061,1
72.975999999999985,6.853350211836425,0.869773266267613,2.050449397470949,-1.806595879483971,0.874205909800891,0.079688616883785,-3.864665102073378,-1.372490512812151,-0.139247619177901,11.913824297144609,-3.323580693283017,-0.135746801519624,-1.739476528377335,-1.005658064430117,1
72.992000000000004,6.823958225357419,0.883582663477298,2.051706496416922,-1.866882790517093,0.851833177941807,0.077442638693899,-3.669816016276639,-1.423332945169084,-0.141539982138996,12.432395394379306,-3.035556289002081,-0.150868687055127,-1.754837735088805,-0.914851538616530,1
72.995999999999995,6.816461468603512,0.886978577329880,2.052015133032342,-1.881462271847777,0.846115745174662,0.076875261581320,-3.619844362649209,-1.435337806314072,-0.142151136808181,12.552825598126240,-2.967107908476694,-0.154712657967893,-1.758452365817558,-0.892486248521261,1
73.007999999999996,6.793626932915164,0.897027781876725,2.052927355896338,-1.923988254754415,0.828682862779662,0.075158029754512,-3.467140058514293,-1.469748538578709,-0.144077508670328,12.892538763473619,-2.770074446600076,-0.166382768365120,-1.768763258064764,-0.826197597494609,1
73.016000000000005,6.778125183102810,0.903609979137843,2.053523995288374,-1.951310549312028,0.816837575119704,0.074000001529386,-3.363155154463721,-1.491407286000033,-0.145440063064591,13.101362939138790,-2.645504785428851,-0.174269243057706,-1.775198401075407,-0.782677846192886,1
73.028000000000006,6.754471103889255,0.913303899803924,2.054401472574181,-1.990718031054741,0.798754528724380,0.072241887034291,-3.204183670883500,-1.522079884471017,-0.147602964197268,13.388776747547080,-2.468550874853991,-0.186241231338928,-1.784203700783563,-0.718407243314521,1
73.035999999999987,6.738443972086009,0.919645021239569,2.054974668311344,-2.015921159843369,0.786500099223311,0.071055017731442,-3.096365502027082,-1.541378786974157,-0.149125116600060,13.563549226032913,-2.357021183268267,-0.194307432029464,-1.789781902422473,-0.676232857445139,1
73.047999999999988,6.714033903888986,0.928971375945529,2.055816534678784,-2.052095093846741,0.767837704850177,0.069251233910389,-2.932148435144116,-1.568704471159061,-0.151529940465235,13.801095239259947,-2.199113075484296,-0.206517168961474,-1.797521970554546,-0.613980302715058,1
73.055999999999997,6.697524495199151,0.935063693530094,2.056365677794462,-2.075109094342988,0.755218768129844,0.068032298455937,-2.821161925517812,-1.585897481856928,-0.153214861606146,13.943421986009122,-2.099940994481106,-0.214720903503935,-1.802270138130407,-0.573151282277718,1
73.067999999999998,6.672424092399678,0.944011539644648,2.057170971176456,-2.107954382657236,0.736040222799629,0.066177963495727,-2.652672692511402,-1.610247000493250,-0.155865735901404,14.133486538621353,-1.960065360992364,-0.227105941881692,-1.808785335649360,-0.512916775695924,1
73.076000000000008,6.655476780324625,0.949848168159551,2.057695387624294,-2.128722271635178,0.723096469983998,0.064923681764886,-2.539150948358096,-1.625574561451939,-0.157715763880606,14.244943367613836,-1.872582144913371,-0.235406139482078,-1.812730376470797,-0.473433120690777,1
73.088000000000008,6.629753407745985,0.958407754186379,2.058463047574659,-2.158162810402346,0.703457757047048,0.063013843675674,-2.367315691988137,-1.647298600907420,-0.160615584179713,14.389867566986561,-1.749746077239324,-0.247905714128707,-1.818061064339596,-0.415216662257270,1
73.095999999999989,6.612413580921394,0.963982555034227,2.058961997292569,-2.176639953608237,0.690224203260341,0.061720896921057,-2.251860604785743,-1.660987915413309,-0.162632246895019,14.472000140741864,-1.673296593769488,-0.256262425345129,-1.821229885715240,-0.377078372684450,1
73.107999999999990,6.586135943341882,0.972145180323815,2.059690863826672,-2.202617696619241,0.670174489560008,0.059750557842422,-2.077559097936531,-1.680417508086234,-0.165782710288484,14.574079867059211,-1.566527603444736,-0.268817453111925,-1.825416424896854,-0.320879962399227,1
73.116000000000000,6.568449764760857,0.977452670638073,2.060163540124938,-2.218771190506676,0.656681735979486,0.058415604673802,-1.960741947425942,-1.692682812912973,-0.167966747862413,14.628403696636877,-1.500470333611645,-0.277191849854693,-1.827835934135372,-0.284087038258464,1
73.128000000000000,6.541687554974468,0.985210552961138,2.060852353039738,-2.241245230849218,0.636263760847514,0.056379744508008,-1.784808497650004,-1.710129745632464,-0.171368386598054,14.689889602891606,-1.408816352185985,-0.289744929621117,-1.830918685592763,-0.229906676121528,1
73.136000000000010,6.523701733455910,0.990245819902225,2.061297882304208,-2.255053296374312,0.622538251311344,0.054999436423585,-1.667170554866773,-1.721172583307555,-0.173719773804828,14.717890047889473,-1.352523390361485,-0.298099305152564,-1.832615790002788,-0.194459117412957,1
73.148000000000010,6.496525298519169,0.997591970721371,2.061945280964229,-2.273998966171695,0.601788707395252,0.052893035796029,-1.490394908928694,-1.736929805733884,-0.177371988928334,14.740987559883173,-1.275052769399848,-0.310594717826243,-1.834635114698923,-0.142296803424308,1
73.155999999999992,6.478286872179086,1.002350590850635,2.062362722665660,-2.285450354649472,0.587852979564623,0.051464032265107,-1.372448039231027,-1.746939296805708,-0.179889957620942,14.744119828438565,-1.227909823299104,-0.318892486760814,-1.835636721589095,-0.108194610148051,1
73.167999999999992,6.450766897482191,1.009278698126876,2.062967246241461,-2.300858342890284,0.566802885487076,0.049282094811954,-1.195576287651271,-1.761281329830601,-0.183791052616435,14.730989144781651,-1.163711334381553,-0.331276195277543,-1.836632980486940,-0.058050344307686,1
73.176000000000002,6.432323024910492,1.013756656821789,2.063355592507288,-2.309953777249468,0.552673359239314,0.047800711363931,-1.078559159729326,-1.771351912070323,-0.186611050777780,14.523346655274603,-1.352474086301525,-0.373457652481338,-1.837020569881414,-0.038881977994937,1
73.188000000000002,6.404530083651739,1.020260790647477,2.063915653073505,-2.321858270587305,0.531313236373841,0.045533021143858,-0.906144680052870,-1.789202397049153,-0.191457944846840,14.212540570780574,-1.619399132959667,-0.433771848183823,-1.837316526899490,-0.010522882474107,1
73.200000000000003,6.376606612866055,1.026507242267147,2.064448135262250,-2.331716147128833,0.509720147653237,0.043202909483705,-0.737454534879376,-1.810141617442527,-0.197007673052544,13.902647163496924,-1.867355484779929,-0.490610492410469,-1.837275007639744,0.017364068308830,1
73.212000000000003,6.348576904075615,1.032492999124860,2.064952240407190,-2.339572029893979,0.487858380770348,0.040802190629460,-0.572476953403972,-1.833945252362520,-0.203219024330939,13.593802326862576,-2.096892516131456,-0.544056022135169,-1.836901677839030,0.044778874353874,1
73.215999999999994,6.339214180867040,1.034429738524114,2.065113817568421,-2.341753461224001,0.480505629934589,0.039984916305554,-0.518307173165697,-1.842478507356311,-0.205429521099673,13.491110073579335,-2.169405593582670,-0.561131287404626,-1.836704478159515,0.053812221982669,1
73.227999999999994,6.311079684506532,1.040062507645808,2.065578680431127,-2.347009168872860,0.458234646272872,0.037478163965497,-0.358258588089826,-1.869763725314584,-0.212460628904395,13.183868986616883,-2.375225662119032,-0.610179289036174,-1.835897547672618,0.080597501710523,1
73.236000000000004,6.292293267546453,1.043668346919401,2.065871654265558,-2.349455532312125,0.443199147559524,0.035758619684271,-0.253604384065610,-1.889281142128430,-0.217466658928016,12.979785350725860,-2.502870095336369,-0.641092826401237,-1.835182249562117,0.098192052230284,1
73.248000000000005,6.264085300848835,1.048849960137706,2.066284904729573,-2.351557332144234,0.420338480358672,0.033099304166574,-0.096161767059029,-1.921556456175413,-0.226039704459669,13.246798126714463,-2.866138540184524,-0.784667251049756,-1.833764887282267,0.137906503964034,1
73.255999999999986,6.245270898471781,1.052150928972444,2.066542397055958,-2.351901215820760,0.404872013906499,0.031264942299559,0.010368338887289,-1.945338844692370,-0.232665013168188,13.379945878569281,-3.075174435144171,-0.870360957056802,-1.832557214824437,0.163954503628582,1
73.267999999999986,6.217052695267692,1.056868422697516,2.066900565226090,-2.350809714945635,0.381299803152933,0.028407452119407,0.171822000137656,-1.983896504313897,-0.243811992383289,13.516806141648738,-3.342018668708080,-0.984700317958569,-1.830358412554649,0.202384050888657,1
73.275999999999996,6.198252870587369,1.059855047935598,2.067119937352442,-2.349001966934674,0.365320042063810,0.026424709978700,0.280184095592611,-2.011241694529348,-0.251963178828043,13.568653840751965,-3.490482589644096,-1.051932616619238,-1.828638346133347,0.227575447570841,1
73.287999999999997,6.170088931041255,1.064093059675563,2.067418582898411,-2.344661882297040,0.340929184170285,0.023323207922419,0.443208913130326,-2.054263956682203,-0.265130092658572,13.591530092115891,-3.671879426421609,-1.140080993195200,-1.825683801963094,0.264720090357231,1
73.296000000000006,6.151346978242910,1.066754441213189,2.067596585989426,-2.340681414067520,0.324376505433598,0.021165126685103,0.551882817326716,-2.084032390495584,-0.274457874005140,13.572561281301727,-3.766894642167975,-1.190828988249083,-1.823468473637973,0.289054884056959,1
73.308000000000007,6.123302441465281,1.070495815511889,2.067830458630005,-2.333083085762587,0.299094095232338,0.017784257161002,0.714353409480374,-2.129915210201589,-0.289150036495272,13.496735648260195,-3.873237074165288,-1.255673612297918,-1.819783885656729,0.324914622369664,1
73.315999999999988,6.104661786249723,1.072820079328714,2.067963371929205,-2.326937155084628,0.281930268293388,0.015430475211109,0.822022703348461,-2.161105902739054,-0.299343626333201,13.416842954441018,-3.921537638562036,-1.291809842403227,-1.817090427487447,0.348392813086852,1
73.327999999999989,6.076801579553555,1.076046509772920,2.068126609411162,-2.316110433507169,0.255713441839277,0.011744209356763,0.982110467254025,-2.208447256635231,-0.315122527686860,13.256711190420186,-3.962634835293528,-1.336081098101274,-1.812701493784686,0.382967646925875,1
73.335999999999999,6.058305252175374,1.078021208585502,2.068210364625170,-2.307830687401221,0.237918934977555,0.009180213269782,1.087650675104232,-2.240190011950126,-0.325907544728157,13.125196324584788,-3.970565587186562,-1.359373536835019,-1.809547037830874,0.405589234660689,1
73.347999999999999,6.030693359044055,1.080713799003468,2.068296668231755,-2.293839174944189,0.210750945880332,0.005170756798359,1.243806059227337,-2.287778221838871,-0.342387714356570,12.894267809126561,-3.955642895674531,-1.385644960736193,-1.804479456496070,0.438879164026028,1
73.356000000000009,6.012383544127800,1.082326260603076,2.068326959352520,-2.283477928996772,0.192322388274347,0.002387174151855,1.346272830429500,-2.319325848611173,-0.353524091133853,12.719841566341874,-3.929159458914622,-1.397757016593413,-1.800881134817386,0.460644148778385,1
73.372000000000000,5.976028839481545,1.085103875593683,2.068318945959684,-2.260325572674723,0.154713539572000,-0.003448814574072,1.546725495257964,-2.381543517102658,-0.376007420816787,12.327676762834036,-3.840502446227255,-1.410134387038093,-1.793168984649834,0.503146194704075,1
73.375999999999991,5.967000042209389,1.085703636513682,2.068302127597750,-2.254040330345129,0.145156717037360,-0.004964128052310,1.595824897753879,-2.396848432247170,-0.381649852268072,12.221521564515058,-3.811527187133299,-1.410935814023590,-1.791135548596118,0.513557555439865,1
73.387999999999991,5.940069953811483,1.087271853164853,2.068214672952366,-2.234018387091047,0.116122416537511,-0.009645494650060,1.740494435639309,-2.441998317940506,-0.398572618746649,11.885982189272100,-3.709905470233866,-1.408300793503414,-1.784787766265648,0.544277675857837,1
73.396000000000001,5.922254511823291,1.088122373603179,2.068124634598256,-2.219716577260440,0.096468533011977,-0.012879088665693,1.834642690306018,-2.471367210676295,-0.409818311368584,11.649501914098213,-3.630903667742616,-1.402624048766822,-1.780353109316168,0.564329454645281,1
73.408000000000001,5.895753335904293,1.089101021099871,2.067940175524412,-2.196870897524384,0.066553802284267,-0.017897601738418,1.972228227007185,-2.514154224263195,-0.426572800074939,11.278375682739799,-3.497435168715447,-1.388768720377419,-1.773403773622074,0.593764670589568,1
73.416000000000011,5.878242437014243,1.089552702180578,2.067783226123299,-2.180734884659404,0.046329676877407,-0.021354498072413,2.061432560315331,-2.541746599259533,-0.437634619938821,11.021570920280592,-3.399550759156564,-1.376274427760372,-1.768576647126670,0.612959846394555,1
73.428000000000011,5.852225187464347,1.089924684599963,2.067495067643061,-2.155213586804450,0.015587673652877,-0.026704680360292,2.191323474839790,-2.581603678705477,-0.454016147588918,10.624821716812665,-3.241125535056458,-1.353144937566226,-1.761051456158427,0.641110157865158,1
73.435999999999993,5.835054502024399,1.089966500460606,2.067266786587686,-2.137345881239100,-0.005167686496874,-0.030379922800528,2.275241853217004,-2.607086520151304,-0.464770369493926,10.354039598445064,-3.128757282302923,-1.335078245237661,-1.755848992176766,0.659448730687623,1
73.447999999999993,5.809573121232058,1.089715889454749,2.066868381662395,-2.109307362362968,-0.036673802336400,-0.036052582150764,2.397017938513603,-2.643578566337955,-0.480611607248796,9.940744932989569,-2.951681567692807,-1.304463891680903,-1.747773644023849,0.686314137684544,1
73.456000000000003,5.792776209246470,1.089337655243531,2.066564470589440,-2.089816085070621,-0.057915583579718,-0.039938982039773,2.475429361856698,-2.666702941549989,-0.490958363306782,9.661741674164924,-2.828839020621790,-1.281965382727984,-1.742212974615543,0.703796107524617,1
73.468000000000004,5.767879399424664,1.088449864468252,2.066049487155808,-2.059425390001615,-0.090115172495466,-0.045921927125971,2.588843097337859,-2.699515141825336,-0.506126199820073,9.240092682959716,-2.638835227572637,-1.245498616628355,-1.733613167367424,0.729376610047853,1
73.475999999999985,5.751487621756422,1.087642336176580,2.065665809962762,-2.038421970109287,-0.111794358491168,-0.050010519594078,2.661635780692333,-2.720108416947563,-0.515987388153672,8.958033583210586,-2.509138720068366,-1.219604309056955,-1.727711424592163,0.746001976905411,1
73.487999999999985,5.727220745343500,1.086104247605730,2.065028184281985,-2.005847514951814,-0.144611590252237,-0.056289212896571,2.766594604756420,-2.749034568676110,-0.530379792619207,8.535335028609540,-2.311345438159286,-1.178760733611850,-1.718612856338316,0.770297574954965,1
73.495999999999995,5.711263218605926,1.084859191381218,2.064560798437598,-1.983444623619802,-0.166676410101437,-0.060569671269206,2.833754160000231,-2.766992624380548,-0.539696986060494,8.254794471541825,-2.178026089109609,-1.150402080345920,-1.712387172255706,0.786066338830125,1
73.507999999999996,5.687668260650057,1.082659238176947,2.063794776012234,-1.948855273849417,-0.200032319220635,-0.067127819316336,2.930302742553819,-2.791923458493448,-0.553239871259815,7.837464742014801,-1.976998085427800,-1.106500451130358,-1.702815541085605,0.809077032405994,1
73.516000000000005,5.672171851058017,1.080969472230647,2.063239955997104,-1.925164994518366,-0.222429539913766,-0.071588827695107,2.991900360077076,-2.807202905679722,-0.561972226048429,7.562426195314734,-1.842897798727351,-1.076504340012552,-1.696283047755316,0.823989193298697,1
73.528000000000006,5.649287436494234,1.078097682840246,2.062340121310533,-1.888727497626393,-0.256243847554439,-0.078408908565453,3.080202875057313,-2.828114410224960,-0.574616311398358,7.155997305447551,-1.642606017868115,-1.030706564979190,-1.686264051758434,0.845714982400882,1
73.535999999999987,5.634276787946171,1.075957095061755,2.061694375024318,-1.863859732630014,-0.278919910733038,-0.083038492583321,3.136383505444669,-2.840724805720665,-0.582738475879977,6.889853320878620,-1.510177482416935,-0.999795318770601,-1.679441881240140,0.859770540311078,1
73.547999999999988,5.612138246675024,1.072405103211657,2.060655671357532,-1.825736505317714,-0.313112613086912,-0.090102220668879,3.216705903341586,-2.857666549413220,-0.594456150480166,6.498970911373070,-1.314009046483676,-0.953106458249737,-1.669001218505951,0.880211424939581,1
73.555999999999997,5.597635838339104,1.069808647605841,2.059915750329310,-1.799797618861794,-0.336014616119422,-0.094888036419317,3.267676439054316,-2.867662611674128,-0.601956173804962,6.244523124773262,-1.185315736185800,-0.921897834629555,-1.661906502859253,0.893410379867370,1
73.567999999999998,5.576275311015955,1.065569672863341,2.058733490909849,-1.760144888784072,-0.370507339255444,-0.102176764449638,3.340368719433120,-2.880746067446116,-0.612738359485443,5.872946462447151,-0.996073944790032,-0.875166101329114,-1.651069871477230,0.912566360022189,1
73.576000000000008,5.562301539693409,1.062513347922469,2.057896395148183,-1.733236586292679,-0.393583860626297,-0.107106345589601,3.386386176489464,-2.888219892256018,-0.619615600306269,5.632405593734586,-0.872790118556304,-0.844173292895277,-1.643719742761801,0.924908711967521,1
73.588000000000008,5.541748117137326,1.057582151495775,2.056566266885958,-1.692202888351367,-0.428300981810479,-0.114601403916866,3.451864660512887,-2.897606760806870,-0.629468614675010,5.283007571521674,-0.692694448817638,-0.798090051900823,-1.632512840821419,0.942779787648655,1
73.595999999999989,5.528321399674764,1.054062963620668,2.055629245205146,-1.664421332178617,-0.451502750823896,-0.119662366943879,3.493224360170263,-2.902680036977849,-0.635731649845871,5.057993424691663,-0.576105150564251,-0.767721686169694,-1.624924431096934,0.954265536611490,1
73.607999999999990,5.508601288806077,1.048435784067833,2.054147306269968,-1.622146359365301,-0.486372286310164,-0.127345340088940,3.551953963120883,-2.908570570324474,-0.644674069336328,4.732760561641663,-0.406791257110383,-0.722821454944421,-1.613372956687667,0.970851707818942,1
73.619999999999990,5.489392613554823,1.042389794235318,2.052572540671843,-1.579189687909518,-0.521300483948838,-0.135132410357347,3.606870974749659,-2.912471089201928,-0.653082973784281,4.422611591697548,-0.244488673492073,-0.678822349352088,-1.601627073880016,0.986666936342183,1
73.628000000000000,5.476874889045407,1.038126172669100,2.051470525424556,-1.550195329661852,-0.544606956400016,-0.140378488251522,3.641454217360339,-2.914008120423971,-0.658398125529473,4.224334466043086,-0.140312030724440,-0.650042042735208,-1.593693049225043,0.996782120533128,1
73.636000000000010,5.464590209291436,1.033676058958364,2.050326373915306,-1.520930577666696,-0.567922426292721,-0.145666171336609,3.674478495357098,-2.914724816367038,-0.663484896258951,4.032869511268567,-0.039410060199406,-0.621730184631626,-1.585679473661314,1.006554663531090,1
73.648000000000010,5.446604746186227,1.026651128918872,2.048530432904448,-1.476553147954578,-0.602898432876849,-0.153671750650364,3.721210821100737,-2.914319258376623,-0.670695205832921,3.758381028157597,0.105768606769292,-0.580172134844855,-1.573515948582696,1.020571025791173,1
73.655999999999992,5.434911716696297,1.021734694263389,2.047279547725701,-1.446665073536251,-0.626208604989457,-0.159055587538464,3.750574953721417,-2.913100187287730,-0.675227897665046,3.583756711712855,0.198456207534337,-0.553083211503271,-1.565315488188862,1.029486965806646,1
73.667999999999992,5.417822791041315,1.014010514675905,2.045322107861653,-1.401406223136952,-0.661148283538453,-0.167197184619186,3.792067434182164,-2.909913593550268,-0.681625525089553,3.334074701609900,0.331449069286492,-0.513370638141083,-1.552884484909779,1.042218423593047,1
73.676000000000002,5.406733168500056,1.008628241283839,2.043962675115294,-1.370964700817142,-0.684416073770289,-0.172666339419907,3.818101780456469,-2.906920973355635,-0.685628674666631,3.175547163797484,0.416194116354841,-0.487495016751253,-1.544514271745430,1.050277760626095,1
73.688000000000002,5.390557393384260,1.000206078843303,2.041841176133785,-1.324924354500485,-0.719266203818341,-0.180928066142500,3.854836432759616,-2.901191036750583,-0.691249862176734,2.949112810009217,0.537700704467164,-0.449535074288218,-1.531841488355356,1.061724313938811,1
73.695999999999984,5.380081601869138,0.994359158653420,2.040371593779877,-1.293992839735207,-0.742457692149710,-0.186472184809574,3.877850590387089,-2.896577773154437,-0.694746772140590,2.805357272767226,0.615157736885392,-0.424760277566482,-1.523318654480201,1.068927047989377,1
73.707999999999984,5.364833685925849,0.985241298046206,2.038083786105012,-1.247261649845297,-0.777169630168692,-0.194838849373695,3.910270107097344,-2.888522822329529,-0.699624459726287,2.599867348875775,0.726369219620290,-0.388327705290283,-1.510429789068610,1.079088696828411,1
73.715999999999994,5.354980940407862,0.978931571788640,2.036502654700803,-1.215897699569977,-0.800253804927356,-0.200448016326010,3.930543324478426,-2.882426172812772,-0.702635491266109,2.469260212824774,0.797392316959515,-0.364486961183450,-1.501771466542237,1.085434827896546,1
73.727999999999994,5.340673864592160,0.969121228561143,2.034046586323494,-1.168557942668162,-0.834783023864681,-0.208905037393702,3.959042263113997,-2.872239286069458,-0.706797714359526,2.282298330388744,0.899581592437183,-0.329332722718990,-1.488692217198602,1.094311572261895,1
73.736000000000004,5.331452282592184,0.962351130886307,2.032352700888332,-1.136813852270513,-0.857731448189440,-0.214569710952061,3.976821628663262,-2.864779574143139,-0.709339918252116,2.163263600091895,0.964999420184985,-0.306264585176542,-1.479915538080691,1.099801100347574,1
73.748000000000005,5.318097458051929,0.951852374187955,2.029726706146735,-1.088940390114718,-0.892037031929679,-0.223103018992861,4.001747269086092,-2.852628971251267,-0.712809869283665,1.992519610614412,1.059378645583837,-0.272153628188451,-1.466671602894486,1.107392940239238,1
73.760000000000005,5.305318861170286,0.940942852203177,2.026998071657069,-1.040779901148992,-0.926190114695211,-0.231675523383054,4.024676762869569,-2.839371004290114,-0.715873681178287,1.830442284389977,1.149628016624630,-0.238561736093333,-1.453341191285686,1.114213837446693,1
73.767999999999986,5.297121565582931,0.933442570764195,2.025121739628546,-1.008525027228380,-0.948867670941707,-0.237409910107476,4.038903565233470,-2.829940632737660,-0.717693474962892,1.726824527816115,1.207698398215068,-0.216417645781233,-1.444410776305415,1.118332800760426,1
73.775999999999996,5.289182755474075,0.925761175568824,2.023199476158583,-0.976159619008308,-0.971467942711866,-0.243158148493265,4.052314720300823,-2.820051940570561,-0.719336829546659,1.626493794231015,1.264227197625605,-0.194448339165279,-1.435448780183376,1.122109122881190,1
